_id,rt,trial_type,trial_index,time_elapsed,internal_node_id,subject,study_id,session_id,__v,response,theword,block
663e55d48e1507bd70f61699,16256,instructions,0,16256,0,560ce65601c38a0012769e20,663aca6426db79e41fdd5add,663e53d81f6562b985eda1f3,0,,,
663e55d48e1507bd70f6169b,3319,instructions,1,19576,0,560ce65601c38a0012769e20,663aca6426db79e41fdd5add,663e53d81f6562b985eda1f3,0,,,
663e55d48e1507bd70f6169d,4527,survey-multi-choice,3,47704,0,560ce65601c38a0012769e20,663aca6426db79e41fdd5add,663e53d81f6562b985eda1f3,0,"{""Q0"":""solid""}","In the sentence [this is a block of metal], a block of metal is:",practice_solidity
663e55d48e1507bd70f6169f,3919,survey-multi-choice,4,53432,0,560ce65601c38a0012769e20,663aca6426db79e41fdd5add,663e53d81f6562b985eda1f3,0,"{""Q0"":""solid""}","In the sentence [this is a pile of sand], a pile of sand is:",practice_solidity
663e55d48e1507bd70f616a1,23599,html-button-response,2,43176,0,560ce65601c38a0012769e20,663aca6426db79e41fdd5add,663e53d81f6562b985eda1f3,0,0,,
663e55d48e1507bd70f616a3,2983,survey-multi-choice,6,67520,0,560ce65601c38a0012769e20,663aca6426db79e41fdd5add,663e53d81f6562b985eda1f3,0,"{""Q0"":""solid""}",doll,solidity
663e55d48e1507bd70f616a5,1744,survey-multi-choice,7,69264,0,560ce65601c38a0012769e20,663aca6426db79e41fdd5add,663e53d81f6562b985eda1f3,0,"{""Q0"":""solid""}",cracker,solidity
663e55d48e1507bd70f616a7,3288,survey-multi-choice,5,64536,0,560ce65601c38a0012769e20,663aca6426db79e41fdd5add,663e53d81f6562b985eda1f3,0,"{""Q0"":""non-solid""}",water (beverage),solidity
663e55d48e1507bd70f616a9,3111,survey-multi-choice,8,72376,0,560ce65601c38a0012769e20,663aca6426db79e41fdd5add,663e53d81f6562b985eda1f3,0,"{""Q0"":""solid""}",butterfly,solidity
663e55d48e1507bd70f616ab,2511,survey-multi-choice,9,74888,0,560ce65601c38a0012769e20,663aca6426db79e41fdd5add,663e53d81f6562b985eda1f3,0,"{""Q0"":""solid""}",cup,solidity
663e55d48e1507bd70f616ad,1831,survey-multi-choice,10,76720,0,560ce65601c38a0012769e20,663aca6426db79e41fdd5add,663e53d81f6562b985eda1f3,0,"{""Q0"":""solid""}",ear,solidity
663e55d48e1507bd70f616af,1960,survey-multi-choice,11,78680,0,560ce65601c38a0012769e20,663aca6426db79e41fdd5add,663e53d81f6562b985eda1f3,0,"{""Q0"":""solid""}",window,solidity
663e55d48e1507bd70f616b1,6544,survey-multi-choice,12,85224,0,560ce65601c38a0012769e20,663aca6426db79e41fdd5add,663e53d81f6562b985eda1f3,0,"{""Q0"":""non-solid""}",shirt,solidity
663e55d48e1507bd70f616b3,1672,survey-multi-choice,13,86896,0,560ce65601c38a0012769e20,663aca6426db79e41fdd5add,663e53d81f6562b985eda1f3,0,"{""Q0"":""solid""}",pickle,solidity
663e55d48e1507bd70f616b5,1776,survey-multi-choice,14,88673,0,560ce65601c38a0012769e20,663aca6426db79e41fdd5add,663e53d81f6562b985eda1f3,0,"{""Q0"":""solid""}",tractor,solidity
663e55db8e1507bd70f616b7,2689,instructions,0,2691,0,60eb11e45f3e9cb0ae58a090,663aca6426db79e41fdd5add,663e5490e3cd2c8950146038,0,,,
663e55db8e1507bd70f616b9,2270,instructions,1,4961,0,60eb11e45f3e9cb0ae58a090,663aca6426db79e41fdd5add,663e5490e3cd2c8950146038,0,,,
663e55db8e1507bd70f616bb,24462,html-button-response,2,29425,0,60eb11e45f3e9cb0ae58a090,663aca6426db79e41fdd5add,663e5490e3cd2c8950146038,0,0,,
663e55db8e1507bd70f616bd,4031,survey-multi-choice,3,33458,0,60eb11e45f3e9cb0ae58a090,663aca6426db79e41fdd5add,663e5490e3cd2c8950146038,0,"{""Q0"":""count noun""}"," In the sentence [would you like a Chair?], a chair is:",practice_countmass
663e55db8e1507bd70f616bf,2521,survey-multi-choice,4,37705,0,60eb11e45f3e9cb0ae58a090,663aca6426db79e41fdd5add,663e5490e3cd2c8950146038,0,"{""Q0"":""mass noun""}"," In the sentence [This is so much sugar?], sugar is: ",practice_countmass
663e55db8e1507bd70f616c1,1749,survey-multi-choice,6,44369,0,60eb11e45f3e9cb0ae58a090,663aca6426db79e41fdd5add,663e5490e3cd2c8950146038,0,"{""Q0"":""count noun""}",doll,count_mass
663e55db8e1507bd70f616c3,3543,survey-multi-choice,5,42618,0,60eb11e45f3e9cb0ae58a090,663aca6426db79e41fdd5add,663e5490e3cd2c8950146038,0,"{""Q0"":""count noun""}",giraffe,count_mass
663e55db8e1507bd70f616c5,1592,survey-multi-choice,7,45962,0,60eb11e45f3e9cb0ae58a090,663aca6426db79e41fdd5add,663e5490e3cd2c8950146038,0,"{""Q0"":""count noun""}",crayon,count_mass
663e55db8e1507bd70f616c7,1591,survey-multi-choice,8,47554,0,60eb11e45f3e9cb0ae58a090,663aca6426db79e41fdd5add,663e5490e3cd2c8950146038,0,"{""Q0"":""count noun""}",knee,count_mass
663e55db8e1507bd70f616c9,2767,survey-multi-choice,10,52385,0,60eb11e45f3e9cb0ae58a090,663aca6426db79e41fdd5add,663e5490e3cd2c8950146038,0,"{""Q0"":""count noun""}",paper,count_mass
663e55db8e1507bd70f616cb,2063,survey-multi-choice,9,49618,0,60eb11e45f3e9cb0ae58a090,663aca6426db79e41fdd5add,663e5490e3cd2c8950146038,0,"{""Q0"":""count noun""}",sheep,count_mass
663e55db8e1507bd70f616cd,2056,survey-multi-choice,11,54442,0,60eb11e45f3e9cb0ae58a090,663aca6426db79e41fdd5add,663e5490e3cd2c8950146038,0,"{""Q0"":""count noun""}",apple,count_mass
663e55db8e1507bd70f616cf,3101,survey-multi-choice,12,57545,0,60eb11e45f3e9cb0ae58a090,663aca6426db79e41fdd5add,663e5490e3cd2c8950146038,0,"{""Q0"":""count noun""}",zipper,count_mass
663e56848e1507bd70f616d1,2157,instructions,0,2159,0,6102b9d04b46de930a9cce0a,663aca6426db79e41fdd5add,663e544c3bc59120d5f0ac6e,0,,,
663e56848e1507bd70f616d3,3205,instructions,1,5365,0,6102b9d04b46de930a9cce0a,663aca6426db79e41fdd5add,663e544c3bc59120d5f0ac6e,0,,,
663e56848e1507bd70f616d5,4417,survey-multi-choice,3,54029,0,6102b9d04b46de930a9cce0a,663aca6426db79e41fdd5add,663e544c3bc59120d5f0ac6e,0,"{""Q0"":""count noun""}"," In the sentence [would you like a Chair?], a chair is:",practice_countmass
663e56848e1507bd70f616d7,44238,html-button-response,2,49609,0,6102b9d04b46de930a9cce0a,663aca6426db79e41fdd5add,663e544c3bc59120d5f0ac6e,0,0,,
663e56848e1507bd70f616d9,4108,survey-multi-choice,4,64457,0,6102b9d04b46de930a9cce0a,663aca6426db79e41fdd5add,663e544c3bc59120d5f0ac6e,0,"{""Q0"":""mass noun""}"," In the sentence [This is so much sugar?], sugar is: ",practice_countmass
663e56848e1507bd70f616db,6038,survey-multi-choice,5,72187,0,6102b9d04b46de930a9cce0a,663aca6426db79e41fdd5add,663e544c3bc59120d5f0ac6e,0,"{""Q0"":""unclear/unknown""}",stork,count_mass
663e56848e1507bd70f616dd,7830,survey-multi-choice,6,80021,0,6102b9d04b46de930a9cce0a,663aca6426db79e41fdd5add,663e544c3bc59120d5f0ac6e,0,"{""Q0"":""count noun""}",chickpea,count_mass
663e56848e1507bd70f616df,2116,survey-multi-choice,7,82138,0,6102b9d04b46de930a9cce0a,663aca6426db79e41fdd5add,663e544c3bc59120d5f0ac6e,0,"{""Q0"":""count noun""}",kayak,count_mass
663e56848e1507bd70f616e1,2194,survey-multi-choice,8,84333,0,6102b9d04b46de930a9cce0a,663aca6426db79e41fdd5add,663e544c3bc59120d5f0ac6e,0,"{""Q0"":""count noun""}",teapot,count_mass
663e56848e1507bd70f616e3,2096,survey-multi-choice,9,86430,0,6102b9d04b46de930a9cce0a,663aca6426db79e41fdd5add,663e544c3bc59120d5f0ac6e,0,"{""Q0"":""count noun""}",gloves,count_mass
663e56848e1507bd70f616e5,2974,survey-multi-choice,10,89405,0,6102b9d04b46de930a9cce0a,663aca6426db79e41fdd5add,663e544c3bc59120d5f0ac6e,0,"{""Q0"":""mass noun""}",goal,count_mass
663e56848e1507bd70f616e7,3098,survey-multi-choice,11,92504,0,6102b9d04b46de930a9cce0a,663aca6426db79e41fdd5add,663e544c3bc59120d5f0ac6e,0,"{""Q0"":""mass noun""}",carpet,count_mass
663e56848e1507bd70f616e9,1729,survey-multi-choice,12,94235,0,6102b9d04b46de930a9cce0a,663aca6426db79e41fdd5add,663e544c3bc59120d5f0ac6e,0,"{""Q0"":""count noun""}",sponge,count_mass
663e57398e1507bd70f616eb,7693,instructions,0,7698,0,5d7824b816dea6000130d65f,663aca6426db79e41fdd5add,663e5515884bdc5a75ebe3e8,0,,,
663e57398e1507bd70f616ed,3592,instructions,1,11292,0,5d7824b816dea6000130d65f,663aca6426db79e41fdd5add,663e5515884bdc5a75ebe3e8,0,,,
663e57398e1507bd70f616ef,48804,html-button-response,2,60106,0,5d7824b816dea6000130d65f,663aca6426db79e41fdd5add,663e5515884bdc5a75ebe3e8,0,0,,
663e57398e1507bd70f616f1,6176,survey-multi-choice,5,90353,0,5d7824b816dea6000130d65f,663aca6426db79e41fdd5add,663e5515884bdc5a75ebe3e8,0,"{""Q0"":""count noun""}",popsicle,count_mass
663e57398e1507bd70f616f3,4837,survey-multi-choice,3,64948,0,5d7824b816dea6000130d65f,663aca6426db79e41fdd5add,663e5515884bdc5a75ebe3e8,0,"{""Q0"":""mass noun""}"," In the sentence [would you like a Chair?], a chair is:",practice_countmass
663e57398e1507bd70f616f5,6793,survey-multi-choice,4,81770,0,5d7824b816dea6000130d65f,663aca6426db79e41fdd5add,663e5515884bdc5a75ebe3e8,0,"{""Q0"":""mass noun""}"," In the sentence [This is so much sugar?], sugar is: ",practice_countmass
663e57398e1507bd70f616f7,3575,survey-multi-choice,6,93938,0,5d7824b816dea6000130d65f,663aca6426db79e41fdd5add,663e5515884bdc5a75ebe3e8,0,"{""Q0"":""count noun""}",grapes,count_mass
663e57398e1507bd70f616f9,5511,survey-multi-choice,7,99459,0,5d7824b816dea6000130d65f,663aca6426db79e41fdd5add,663e5515884bdc5a75ebe3e8,0,"{""Q0"":""count noun""}",money,count_mass
663e57398e1507bd70f616fb,2926,survey-multi-choice,8,102393,0,5d7824b816dea6000130d65f,663aca6426db79e41fdd5add,663e5515884bdc5a75ebe3e8,0,"{""Q0"":""count noun""}",butterfly,count_mass
663e57398e1507bd70f616fd,5131,survey-multi-choice,9,107533,0,5d7824b816dea6000130d65f,663aca6426db79e41fdd5add,663e5515884bdc5a75ebe3e8,0,"{""Q0"":""mass noun""}",coffee,count_mass
663e57398e1507bd70f616ff,5047,survey-multi-choice,10,112590,0,5d7824b816dea6000130d65f,663aca6426db79e41fdd5add,663e5515884bdc5a75ebe3e8,0,"{""Q0"":""count noun""}",chips,count_mass
663e57398e1507bd70f61701,2843,survey-multi-choice,11,115440,0,5d7824b816dea6000130d65f,663aca6426db79e41fdd5add,663e5515884bdc5a75ebe3e8,0,"{""Q0"":""count noun""}",pen,count_mass
663e57398e1507bd70f61703,4196,survey-multi-choice,12,119644,0,5d7824b816dea6000130d65f,663aca6426db79e41fdd5add,663e5515884bdc5a75ebe3e8,0,"{""Q0"":""mass noun""}",knee,count_mass
663e57398e1507bd70f61705,3000,survey-multi-choice,13,122652,0,5d7824b816dea6000130d65f,663aca6426db79e41fdd5add,663e5515884bdc5a75ebe3e8,0,"{""Q0"":""mass noun""}",bedroom,count_mass
663e573a8e1507bd70f61707,3728,survey-multi-choice,15,129428,0,5d7824b816dea6000130d65f,663aca6426db79e41fdd5add,663e5515884bdc5a75ebe3e8,0,"{""Q0"":""mass noun""}",pastry,count_mass
663e573a8e1507bd70f61709,4912,survey-multi-choice,16,134348,0,5d7824b816dea6000130d65f,663aca6426db79e41fdd5add,663e5515884bdc5a75ebe3e8,0,"{""Q0"":""count noun""}",toothbrush,count_mass
663e573a8e1507bd70f6170b,2940,survey-multi-choice,19,145613,0,5d7824b816dea6000130d65f,663aca6426db79e41fdd5add,663e5515884bdc5a75ebe3e8,0,"{""Q0"":""count noun""}",flower,count_mass
663e573a8e1507bd70f6170d,4136,survey-multi-choice,20,149757,0,5d7824b816dea6000130d65f,663aca6426db79e41fdd5add,663e5515884bdc5a75ebe3e8,0,"{""Q0"":""count noun""}",box,count_mass
663e573a8e1507bd70f6170f,3694,survey-multi-choice,21,153460,0,5d7824b816dea6000130d65f,663aca6426db79e41fdd5add,663e5515884bdc5a75ebe3e8,0,"{""Q0"":""mass noun""}",peanut butter,count_mass
663e573a8e1507bd70f61711,4568,survey-multi-choice,25,171543,0,5d7824b816dea6000130d65f,663aca6426db79e41fdd5add,663e5515884bdc5a75ebe3e8,0,"{""Q0"":""count noun""}",grey,attention_countmass
663e573a8e1507bd70f61713,57790,html-button-response,26,229342,0,5d7824b816dea6000130d65f,663aca6426db79e41fdd5add,663e5515884bdc5a75ebe3e8,0,0,,
663e573a8e1507bd70f61715,7832,survey-multi-choice,33,302940,0,5d7824b816dea6000130d65f,663aca6426db79e41fdd5add,663e5515884bdc5a75ebe3e8,0,"{""Q0"":""shape""}",cow,category_organization
663e573a8e1507bd70f61717,7819,survey-multi-choice,35,324558,0,5d7824b816dea6000130d65f,663aca6426db79e41fdd5add,663e5515884bdc5a75ebe3e8,0,"{""Q0"":""shape""}",sweater,category_organization
663e573a8e1507bd70f61719,4892,survey-multi-choice,30,272401,0,5d7824b816dea6000130d65f,663aca6426db79e41fdd5add,663e5515884bdc5a75ebe3e8,0,"{""Q0"":""shape""}",toy (object),category_organization
663e573a8e1507bd70f6171b,6082,survey-multi-choice,38,345064,0,5d7824b816dea6000130d65f,663aca6426db79e41fdd5add,663e5515884bdc5a75ebe3e8,0,"{""Q0"":""material""}",chocolate,category_organization
663e573a8e1507bd70f6171d,10892,survey-multi-choice,36,335461,0,5d7824b816dea6000130d65f,663aca6426db79e41fdd5add,663e5515884bdc5a75ebe3e8,0,"{""Q0"":""shape""}",squirrel,category_organization
663e581d8e1507bd70f6171f,6882,instructions,1,27169,0,62b05fdedd70cd33ea6afbd2,663aca6426db79e41fdd5add,663e561571251810a4f898df,0,,,
663e581d8e1507bd70f61721,20281,instructions,0,20287,0,62b05fdedd70cd33ea6afbd2,663aca6426db79e41fdd5add,663e561571251810a4f898df,0,,,
663e581d8e1507bd70f61723,45915,html-button-response,2,73092,0,62b05fdedd70cd33ea6afbd2,663aca6426db79e41fdd5add,663e561571251810a4f898df,0,0,,
663e581d8e1507bd70f61725,13109,survey-multi-choice,6,127904,0,62b05fdedd70cd33ea6afbd2,663aca6426db79e41fdd5add,663e561571251810a4f898df,0,"{""Q0"":""none of these""}",strawberry,category_organization
663e581d8e1507bd70f61727,6134,survey-multi-choice,4,98918,0,62b05fdedd70cd33ea6afbd2,663aca6426db79e41fdd5add,663e561571251810a4f898df,0,"{""Q0"":""color""}","In the sentence [this is a red table], 'red' belongs to a category that is organized by:",practice_category
663e581d8e1507bd70f61729,14409,survey-multi-choice,5,114806,0,62b05fdedd70cd33ea6afbd2,663aca6426db79e41fdd5add,663e561571251810a4f898df,0,"{""Q0"":""none of these""}",picture,category_organization
663e581d8e1507bd70f6172b,16678,survey-multi-choice,3,89774,0,62b05fdedd70cd33ea6afbd2,663aca6426db79e41fdd5add,663e561571251810a4f898df,0,"{""Q0"":""shape""}","In the sentence [this is a square table], a 'square' belongs to a category that is organized by:",practice_category
663e581d8e1507bd70f6172d,6706,survey-multi-choice,7,134612,0,62b05fdedd70cd33ea6afbd2,663aca6426db79e41fdd5add,663e561571251810a4f898df,0,"{""Q0"":""none of these""}",horse,category_organization
663e581d8e1507bd70f6172f,8191,survey-multi-choice,11,170117,0,62b05fdedd70cd33ea6afbd2,663aca6426db79e41fdd5add,663e561571251810a4f898df,0,"{""Q0"":""material""}",french fries,category_organization
663e581d8e1507bd70f61731,7418,survey-multi-choice,8,142032,0,62b05fdedd70cd33ea6afbd2,663aca6426db79e41fdd5add,663e561571251810a4f898df,0,"{""Q0"":""none of these""}",doll,category_organization
663e581d8e1507bd70f61733,7026,survey-multi-choice,10,161924,0,62b05fdedd70cd33ea6afbd2,663aca6426db79e41fdd5add,663e561571251810a4f898df,0,"{""Q0"":""shape""}",key,category_organization
663e581d8e1507bd70f61735,12862,survey-multi-choice,9,154896,0,62b05fdedd70cd33ea6afbd2,663aca6426db79e41fdd5add,663e561571251810a4f898df,0,"{""Q0"":""none of these""}",pillow,category_organization
663e581d8e1507bd70f61737,12816,survey-multi-choice,13,189972,0,62b05fdedd70cd33ea6afbd2,663aca6426db79e41fdd5add,663e561571251810a4f898df,0,"{""Q0"":""material""}",water (not beverage),category_organization
663e581d8e1507bd70f61739,7036,survey-multi-choice,12,177155,0,62b05fdedd70cd33ea6afbd2,663aca6426db79e41fdd5add,663e561571251810a4f898df,0,"{""Q0"":""none of these""}",pig,category_organization
663e581d8e1507bd70f6173b,9730,survey-multi-choice,14,199704,0,62b05fdedd70cd33ea6afbd2,663aca6426db79e41fdd5add,663e561571251810a4f898df,0,"{""Q0"":""shape""}",motorcycle,category_organization
663e581d8e1507bd70f6173d,4944,survey-multi-choice,15,204650,0,62b05fdedd70cd33ea6afbd2,663aca6426db79e41fdd5add,663e561571251810a4f898df,0,"{""Q0"":""shape""}",bubbles,category_organization
663e581d8e1507bd70f6173f,3990,survey-multi-choice,16,208642,0,62b05fdedd70cd33ea6afbd2,663aca6426db79e41fdd5add,663e561571251810a4f898df,0,"{""Q0"":""shape""}",balloon,category_organization
663e581d8e1507bd70f61741,7622,survey-multi-choice,17,216266,0,62b05fdedd70cd33ea6afbd2,663aca6426db79e41fdd5add,663e561571251810a4f898df,0,"{""Q0"":""none of these""}",hat,category_organization
663e581d8e1507bd70f61743,8496,survey-multi-choice,18,224764,0,62b05fdedd70cd33ea6afbd2,663aca6426db79e41fdd5add,663e561571251810a4f898df,0,"{""Q0"":""none of these""}",watch (object),category_organization
663e581d8e1507bd70f61745,6994,survey-multi-choice,19,231760,0,62b05fdedd70cd33ea6afbd2,663aca6426db79e41fdd5add,663e561571251810a4f898df,0,"{""Q0"":""shape""}",telephone,category_organization
663e581e8e1507bd70f61747,4435,survey-multi-choice,20,236197,0,62b05fdedd70cd33ea6afbd2,663aca6426db79e41fdd5add,663e561571251810a4f898df,0,"{""Q0"":""shape""}",zipper,category_organization
663e581e8e1507bd70f61749,3663,survey-multi-choice,21,239862,0,62b05fdedd70cd33ea6afbd2,663aca6426db79e41fdd5add,663e561571251810a4f898df,0,"{""Q0"":""shape""}",raisin,category_organization
663e581e8e1507bd70f6174b,7393,survey-multi-choice,22,247265,0,62b05fdedd70cd33ea6afbd2,663aca6426db79e41fdd5add,663e561571251810a4f898df,0,"{""Q0"":""shape""}",truck,category_organization
663e581e8e1507bd70f6174d,4708,survey-multi-choice,23,251975,0,62b05fdedd70cd33ea6afbd2,663aca6426db79e41fdd5add,663e561571251810a4f898df,0,"{""Q0"":""material""}",bathroom,category_organization
663e581e8e1507bd70f6174f,7925,survey-multi-choice,24,259901,0,62b05fdedd70cd33ea6afbd2,663aca6426db79e41fdd5add,663e561571251810a4f898df,0,"{""Q0"":""none of these""}",brush (object),category_organization
663e581e8e1507bd70f61751,3428,survey-multi-choice,25,263331,0,62b05fdedd70cd33ea6afbd2,663aca6426db79e41fdd5add,663e561571251810a4f898df,0,"{""Q0"":""color""}",lavender,attention_category
663e581e8e1507bd70f61753,18799,html-button-response,26,282133,0,62b05fdedd70cd33ea6afbd2,663aca6426db79e41fdd5add,663e561571251810a4f898df,0,0,,
663e581e8e1507bd70f61755,5235,survey-multi-choice,28,299318,0,62b05fdedd70cd33ea6afbd2,663aca6426db79e41fdd5add,663e561571251810a4f898df,0,"{""Q0"":""non-solid""}","In the sentence [this is a pile of sand], a pile of sand is:",practice_solidity
663e581e8e1507bd70f61757,10346,survey-multi-choice,27,292480,0,62b05fdedd70cd33ea6afbd2,663aca6426db79e41fdd5add,663e561571251810a4f898df,0,"{""Q0"":""solid""}","In the sentence [this is a block of metal], a block of metal is:",practice_solidity
663e581e8e1507bd70f61759,5041,survey-multi-choice,29,306714,0,62b05fdedd70cd33ea6afbd2,663aca6426db79e41fdd5add,663e561571251810a4f898df,0,"{""Q0"":""solid""}",doll,solidity
663e581e8e1507bd70f6175b,3677,survey-multi-choice,30,310394,0,62b05fdedd70cd33ea6afbd2,663aca6426db79e41fdd5add,663e561571251810a4f898df,0,"{""Q0"":""solid""}",strawberry,solidity
663e581e8e1507bd70f6175d,2529,survey-multi-choice,31,312925,0,62b05fdedd70cd33ea6afbd2,663aca6426db79e41fdd5add,663e561571251810a4f898df,0,"{""Q0"":""solid""}",scissors,solidity
663e581e8e1507bd70f6175f,2941,survey-multi-choice,34,324544,0,62b05fdedd70cd33ea6afbd2,663aca6426db79e41fdd5add,663e561571251810a4f898df,0,"{""Q0"":""solid""}",horse,solidity
663e581e8e1507bd70f61761,5726,survey-multi-choice,33,321601,0,62b05fdedd70cd33ea6afbd2,663aca6426db79e41fdd5add,663e561571251810a4f898df,0,"{""Q0"":""non-solid""}",sock,solidity
663e581e8e1507bd70f61763,3898,survey-multi-choice,35,328444,0,62b05fdedd70cd33ea6afbd2,663aca6426db79e41fdd5add,663e561571251810a4f898df,0,"{""Q0"":""solid""}",duck,solidity
663e581e8e1507bd70f61765,2947,survey-multi-choice,32,315873,0,62b05fdedd70cd33ea6afbd2,663aca6426db79e41fdd5add,663e561571251810a4f898df,0,"{""Q0"":""solid""}",bib,solidity
663e581e8e1507bd70f61767,5096,survey-multi-choice,37,341998,0,62b05fdedd70cd33ea6afbd2,663aca6426db79e41fdd5add,663e561571251810a4f898df,0,"{""Q0"":""non-solid""}",shower,solidity
663e581e8e1507bd70f61769,8454,survey-multi-choice,36,336900,0,62b05fdedd70cd33ea6afbd2,663aca6426db79e41fdd5add,663e561571251810a4f898df,0,"{""Q0"":""solid""}",flower,solidity
663e581e8e1507bd70f6176b,2767,survey-multi-choice,38,344767,0,62b05fdedd70cd33ea6afbd2,663aca6426db79e41fdd5add,663e561571251810a4f898df,0,"{""Q0"":""solid""}",tree,solidity
663e581e8e1507bd70f6176d,2796,survey-multi-choice,39,347564,0,62b05fdedd70cd33ea6afbd2,663aca6426db79e41fdd5add,663e561571251810a4f898df,0,"{""Q0"":""solid""}",pumpkin,solidity
663e581e8e1507bd70f6176f,2593,survey-multi-choice,40,350159,0,62b05fdedd70cd33ea6afbd2,663aca6426db79e41fdd5add,663e561571251810a4f898df,0,"{""Q0"":""solid""}",cookie,solidity
663e581e8e1507bd70f61771,2842,survey-multi-choice,41,353003,0,62b05fdedd70cd33ea6afbd2,663aca6426db79e41fdd5add,663e561571251810a4f898df,0,"{""Q0"":""solid""}",hamburger,solidity
663e581e8e1507bd70f61773,2629,survey-multi-choice,42,355634,0,62b05fdedd70cd33ea6afbd2,663aca6426db79e41fdd5add,663e561571251810a4f898df,0,"{""Q0"":""solid""}",zebra,solidity
663e581e8e1507bd70f61775,3960,survey-multi-choice,43,359596,0,62b05fdedd70cd33ea6afbd2,663aca6426db79e41fdd5add,663e561571251810a4f898df,0,"{""Q0"":""non-solid""}",street,solidity
663e581e8e1507bd70f61777,4340,survey-multi-choice,44,363938,0,62b05fdedd70cd33ea6afbd2,663aca6426db79e41fdd5add,663e561571251810a4f898df,0,"{""Q0"":""non-solid""}",applesauce,solidity
663e581e8e1507bd70f61779,2588,survey-multi-choice,45,366536,0,62b05fdedd70cd33ea6afbd2,663aca6426db79e41fdd5add,663e561571251810a4f898df,0,"{""Q0"":""non-solid""}",game,solidity
663e581e8e1507bd70f6177b,2704,survey-multi-choice,46,369242,0,62b05fdedd70cd33ea6afbd2,663aca6426db79e41fdd5add,663e561571251810a4f898df,0,"{""Q0"":""solid""}",fork,solidity
663e581e8e1507bd70f6177d,2429,survey-multi-choice,47,371673,0,62b05fdedd70cd33ea6afbd2,663aca6426db79e41fdd5add,663e561571251810a4f898df,0,"{""Q0"":""solid""}",truck,solidity
663e581e8e1507bd70f6177f,3771,survey-multi-choice,49,377637,0,62b05fdedd70cd33ea6afbd2,663aca6426db79e41fdd5add,663e561571251810a4f898df,0,"{""Q0"":""solid""}",purple,attention_solidity
663e581e8e1507bd70f61781,2189,survey-multi-choice,48,373863,0,62b05fdedd70cd33ea6afbd2,663aca6426db79e41fdd5add,663e561571251810a4f898df,0,"{""Q0"":""solid""}",owl,solidity
663e581e8e1507bd70f61783,31268,html-button-response,50,408908,0,62b05fdedd70cd33ea6afbd2,663aca6426db79e41fdd5add,663e561571251810a4f898df,0,0,,
663e581e8e1507bd70f61785,6741,survey-multi-choice,51,415651,0,62b05fdedd70cd33ea6afbd2,663aca6426db79e41fdd5add,663e561571251810a4f898df,0,"{""Q0"":""count noun""}"," In the sentence [would you like a Chair?], a chair is:",practice_countmass
663e581e8e1507bd70f61787,4270,survey-multi-choice,52,421868,0,62b05fdedd70cd33ea6afbd2,663aca6426db79e41fdd5add,663e561571251810a4f898df,0,"{""Q0"":""mass noun""}"," In the sentence [This is so much sugar?], sugar is: ",practice_countmass
663e581e8e1507bd70f61789,3694,survey-multi-choice,53,427118,0,62b05fdedd70cd33ea6afbd2,663aca6426db79e41fdd5add,663e561571251810a4f898df,0,"{""Q0"":""count noun""}",jacket,count_mass
663e581e8e1507bd70f6178b,10014,survey-multi-choice,55,444311,0,62b05fdedd70cd33ea6afbd2,663aca6426db79e41fdd5add,663e561571251810a4f898df,0,"{""Q0"":""count noun""}",knee,count_mass
663e581e8e1507bd70f6178d,7175,survey-multi-choice,54,434295,0,62b05fdedd70cd33ea6afbd2,663aca6426db79e41fdd5add,663e561571251810a4f898df,0,"{""Q0"":""count noun""}",sun,count_mass
663e581e8e1507bd70f6178f,2970,survey-multi-choice,56,447282,0,62b05fdedd70cd33ea6afbd2,663aca6426db79e41fdd5add,663e561571251810a4f898df,0,"{""Q0"":""count noun""}",bee,count_mass
663e581e8e1507bd70f61791,5122,survey-multi-choice,57,452407,0,62b05fdedd70cd33ea6afbd2,663aca6426db79e41fdd5add,663e561571251810a4f898df,0,"{""Q0"":""count noun""}",picture,count_mass
663e581e8e1507bd70f61793,2709,survey-multi-choice,58,455117,0,62b05fdedd70cd33ea6afbd2,663aca6426db79e41fdd5add,663e561571251810a4f898df,0,"{""Q0"":""count noun""}",pancake,count_mass
663e581e8e1507bd70f61795,2369,survey-multi-choice,59,457488,0,62b05fdedd70cd33ea6afbd2,663aca6426db79e41fdd5add,663e561571251810a4f898df,0,"{""Q0"":""count noun""}",paper,count_mass
663e581e8e1507bd70f61797,2303,survey-multi-choice,60,459793,0,62b05fdedd70cd33ea6afbd2,663aca6426db79e41fdd5add,663e561571251810a4f898df,0,"{""Q0"":""count noun""}",lip,count_mass
663e581e8e1507bd70f61799,2893,survey-multi-choice,61,462688,0,62b05fdedd70cd33ea6afbd2,663aca6426db79e41fdd5add,663e561571251810a4f898df,0,"{""Q0"":""count noun""}",water (beverage),count_mass
663e581f8e1507bd70f6179b,2362,survey-multi-choice,62,465052,0,62b05fdedd70cd33ea6afbd2,663aca6426db79e41fdd5add,663e561571251810a4f898df,0,"{""Q0"":""count noun""}",glasses,count_mass
663e581f8e1507bd70f6179d,3192,survey-multi-choice,63,468246,0,62b05fdedd70cd33ea6afbd2,663aca6426db79e41fdd5add,663e561571251810a4f898df,0,"{""Q0"":""count noun""}",bedroom,count_mass
663e581f8e1507bd70f6179f,3071,survey-multi-choice,64,471318,0,62b05fdedd70cd33ea6afbd2,663aca6426db79e41fdd5add,663e561571251810a4f898df,0,"{""Q0"":""count noun""}",sink,count_mass
663e581f8e1507bd70f617a1,7759,survey-multi-choice,65,479079,0,62b05fdedd70cd33ea6afbd2,663aca6426db79e41fdd5add,663e561571251810a4f898df,0,"{""Q0"":""mass noun""}",moon,count_mass
663e581f8e1507bd70f617a3,2334,survey-multi-choice,67,484481,0,62b05fdedd70cd33ea6afbd2,663aca6426db79e41fdd5add,663e561571251810a4f898df,0,"{""Q0"":""count noun""}",candy,count_mass
663e581f8e1507bd70f617a5,3064,survey-multi-choice,66,482145,0,62b05fdedd70cd33ea6afbd2,663aca6426db79e41fdd5add,663e561571251810a4f898df,0,"{""Q0"":""count noun""}",bread,count_mass
663e581f8e1507bd70f617a7,2175,survey-multi-choice,68,486667,0,62b05fdedd70cd33ea6afbd2,663aca6426db79e41fdd5add,663e561571251810a4f898df,0,"{""Q0"":""count noun""}",chalk,count_mass
663e581f8e1507bd70f617a9,2072,survey-multi-choice,69,488741,0,62b05fdedd70cd33ea6afbd2,663aca6426db79e41fdd5add,663e561571251810a4f898df,0,"{""Q0"":""count noun""}",key,count_mass
663e581f8e1507bd70f617ab,2149,survey-multi-choice,70,490892,0,62b05fdedd70cd33ea6afbd2,663aca6426db79e41fdd5add,663e561571251810a4f898df,0,"{""Q0"":""count noun""}",boat,count_mass
663e581f8e1507bd70f617ad,2055,survey-multi-choice,71,492949,0,62b05fdedd70cd33ea6afbd2,663aca6426db79e41fdd5add,663e561571251810a4f898df,0,"{""Q0"":""count noun""}",truck,count_mass
663e581f8e1507bd70f617af,3008,survey-multi-choice,72,495959,0,62b05fdedd70cd33ea6afbd2,663aca6426db79e41fdd5add,663e561571251810a4f898df,0,"{""Q0"":""mass noun""}",sky,count_mass
663e581f8e1507bd70f617b1,2853,survey-multi-choice,73,498813,0,62b05fdedd70cd33ea6afbd2,663aca6426db79e41fdd5add,663e561571251810a4f898df,0,"{""Q0"":""mass noun""}",grey,attention_countmass
663e581f8e1507bd70f617b3,5177,instructions,74,503991,0,62b05fdedd70cd33ea6afbd2,663aca6426db79e41fdd5add,663e561571251810a4f898df,0,,,
663e58568e1507bd70f617b5,12084,instructions,0,12089,0,5e58e147ca1f140df79a81ca,663aca6426db79e41fdd5add,663e553dfa88359207b23485,0,,,
663e58578e1507bd70f617b7,3357,survey-multi-choice,5,238857,0,5e58e147ca1f140df79a81ca,663aca6426db79e41fdd5add,663e553dfa88359207b23485,0,"{""Q0"":""count noun""}",car,count_mass
663e58578e1507bd70f617b9,1207,instructions,1,13300,0,5e58e147ca1f140df79a81ca,663aca6426db79e41fdd5add,663e553dfa88359207b23485,0,,,
663e58578e1507bd70f617bb,39774,survey-multi-choice,3,196898,0,5e58e147ca1f140df79a81ca,663aca6426db79e41fdd5add,663e553dfa88359207b23485,0,"{""Q0"":""count noun""}"," In the sentence [would you like a Chair?], a chair is:",practice_countmass
663e58578e1507bd70f617bd,143811,html-button-response,2,157119,0,5e58e147ca1f140df79a81ca,663aca6426db79e41fdd5add,663e553dfa88359207b23485,0,0,,
663e58578e1507bd70f617bf,35545,survey-multi-choice,4,234339,0,5e58e147ca1f140df79a81ca,663aca6426db79e41fdd5add,663e553dfa88359207b23485,0,"{""Q0"":""mass noun""}"," In the sentence [This is so much sugar?], sugar is: ",practice_countmass
663e58578e1507bd70f617c1,7531,survey-multi-choice,6,246395,0,5e58e147ca1f140df79a81ca,663aca6426db79e41fdd5add,663e553dfa88359207b23485,0,"{""Q0"":""count noun""}",fish (food),count_mass
663e58578e1507bd70f617c3,25893,survey-multi-choice,7,272292,0,5e58e147ca1f140df79a81ca,663aca6426db79e41fdd5add,663e553dfa88359207b23485,0,"{""Q0"":""count noun""}",owl,count_mass
663e58578e1507bd70f617c5,1763,survey-multi-choice,9,275903,0,5e58e147ca1f140df79a81ca,663aca6426db79e41fdd5add,663e553dfa88359207b23485,0,"{""Q0"":""count noun""}",bowl,count_mass
663e58578e1507bd70f617c7,1841,survey-multi-choice,8,274136,0,5e58e147ca1f140df79a81ca,663aca6426db79e41fdd5add,663e553dfa88359207b23485,0,"{""Q0"":""count noun""}",chair,count_mass
663e58578e1507bd70f617c9,5051,survey-multi-choice,12,346748,0,5e58e147ca1f140df79a81ca,663aca6426db79e41fdd5add,663e553dfa88359207b23485,0,"{""Q0"":""count noun""}",dress (object),count_mass
663e58578e1507bd70f617cb,14759,survey-multi-choice,11,341694,0,5e58e147ca1f140df79a81ca,663aca6426db79e41fdd5add,663e553dfa88359207b23485,0,"{""Q0"":""count noun""}",pencil,count_mass
663e58578e1507bd70f617cd,51025,survey-multi-choice,10,326931,0,5e58e147ca1f140df79a81ca,663aca6426db79e41fdd5add,663e553dfa88359207b23485,0,"{""Q0"":""count noun""}",kitchen,count_mass
663e58a18e1507bd70f617cf,1911,instructions,0,1916,0,663274711eb306bc075a1a70,663aca6426db79e41fdd5add,663e57c18d6445507864a88f,0,,,
663e58a18e1507bd70f617d1,2955,instructions,1,4877,0,663274711eb306bc075a1a70,663aca6426db79e41fdd5add,663e57c18d6445507864a88f,0,,,
663e58a18e1507bd70f617d3,16584,html-button-response,2,21481,0,663274711eb306bc075a1a70,663aca6426db79e41fdd5add,663e57c18d6445507864a88f,0,0,,
663e58a18e1507bd70f617d5,4442,survey-multi-choice,3,25938,0,663274711eb306bc075a1a70,663aca6426db79e41fdd5add,663e57c18d6445507864a88f,0,"{""Q0"":""shape""}","In the sentence [this is a square table], a 'square' belongs to a category that is organized by:",practice_category
663e58a18e1507bd70f617d7,3243,survey-multi-choice,4,30426,0,663274711eb306bc075a1a70,663aca6426db79e41fdd5add,663e57c18d6445507864a88f,0,"{""Q0"":""color""}","In the sentence [this is a red table], 'red' belongs to a category that is organized by:",practice_category
663e58a18e1507bd70f617d9,6725,survey-multi-choice,5,37923,0,663274711eb306bc075a1a70,663aca6426db79e41fdd5add,663e57c18d6445507864a88f,0,"{""Q0"":""none of these""}",coffee,category_organization
663e58a18e1507bd70f617db,4126,survey-multi-choice,6,42057,0,663274711eb306bc075a1a70,663aca6426db79e41fdd5add,663e57c18d6445507864a88f,0,"{""Q0"":""none of these""}",cat,category_organization
663e58a18e1507bd70f617dd,4564,survey-multi-choice,7,46630,0,663274711eb306bc075a1a70,663aca6426db79e41fdd5add,663e57c18d6445507864a88f,0,"{""Q0"":""shape""}",stroller,category_organization
663e58a18e1507bd70f617df,3423,survey-multi-choice,8,50069,0,663274711eb306bc075a1a70,663aca6426db79e41fdd5add,663e57c18d6445507864a88f,0,"{""Q0"":""none of these""}",street,category_organization
663e58a18e1507bd70f617e1,2456,survey-multi-choice,9,52538,0,663274711eb306bc075a1a70,663aca6426db79e41fdd5add,663e57c18d6445507864a88f,0,"{""Q0"":""none of these""}",sun,category_organization
663e58a18e1507bd70f617e3,2454,survey-multi-choice,10,55005,0,663274711eb306bc075a1a70,663aca6426db79e41fdd5add,663e57c18d6445507864a88f,0,"{""Q0"":""none of these""}",soup,category_organization
663e58a18e1507bd70f617e5,1943,survey-multi-choice,11,56954,0,663274711eb306bc075a1a70,663aca6426db79e41fdd5add,663e57c18d6445507864a88f,0,"{""Q0"":""material""}",pickle,category_organization
663e58a18e1507bd70f617e7,1512,survey-multi-choice,12,58472,0,663274711eb306bc075a1a70,663aca6426db79e41fdd5add,663e57c18d6445507864a88f,0,"{""Q0"":""material""}",raisin,category_organization
663e58a18e1507bd70f617e9,1783,survey-multi-choice,13,60266,0,663274711eb306bc075a1a70,663aca6426db79e41fdd5add,663e57c18d6445507864a88f,0,"{""Q0"":""material""}",cake,category_organization
663e58a18e1507bd70f617eb,1515,survey-multi-choice,14,61792,0,663274711eb306bc075a1a70,663aca6426db79e41fdd5add,663e57c18d6445507864a88f,0,"{""Q0"":""material""}",flower,category_organization
663e58a18e1507bd70f617ed,3410,survey-multi-choice,15,65207,0,663274711eb306bc075a1a70,663aca6426db79e41fdd5add,663e57c18d6445507864a88f,0,"{""Q0"":""material""}",medicine,category_organization
663e58a18e1507bd70f617ef,1925,survey-multi-choice,16,67143,0,663274711eb306bc075a1a70,663aca6426db79e41fdd5add,663e57c18d6445507864a88f,0,"{""Q0"":""material""}",pencil,category_organization
663e58a18e1507bd70f617f1,1609,survey-multi-choice,17,68766,0,663274711eb306bc075a1a70,663aca6426db79e41fdd5add,663e57c18d6445507864a88f,0,"{""Q0"":""material""}",pasta,category_organization
663e58a18e1507bd70f617f3,2391,survey-multi-choice,18,71174,0,663274711eb306bc075a1a70,663aca6426db79e41fdd5add,663e57c18d6445507864a88f,0,"{""Q0"":""none of these""}",game,category_organization
663e58a18e1507bd70f617f5,1666,survey-multi-choice,19,72855,0,663274711eb306bc075a1a70,663aca6426db79e41fdd5add,663e57c18d6445507864a88f,0,"{""Q0"":""material""}",tree,category_organization
663e58a28e1507bd70f617f7,1914,survey-multi-choice,20,74781,0,663274711eb306bc075a1a70,663aca6426db79e41fdd5add,663e57c18d6445507864a88f,0,"{""Q0"":""material""}",money,category_organization
663e58a28e1507bd70f617f9,2114,survey-multi-choice,21,76901,0,663274711eb306bc075a1a70,663aca6426db79e41fdd5add,663e57c18d6445507864a88f,0,"{""Q0"":""material""}",drink (beverage),category_organization
663e58a28e1507bd70f617fb,2678,survey-multi-choice,22,79589,0,663274711eb306bc075a1a70,663aca6426db79e41fdd5add,663e57c18d6445507864a88f,0,"{""Q0"":""none of these""}",sky,category_organization
663e58a28e1507bd70f617fd,3927,survey-multi-choice,23,83528,0,663274711eb306bc075a1a70,663aca6426db79e41fdd5add,663e57c18d6445507864a88f,0,"{""Q0"":""none of these""}",foot,category_organization
663e58a28e1507bd70f617ff,2590,survey-multi-choice,24,86127,0,663274711eb306bc075a1a70,663aca6426db79e41fdd5add,663e57c18d6445507864a88f,0,"{""Q0"":""none of these""}",lip,category_organization
663e58a28e1507bd70f61801,2721,survey-multi-choice,25,88860,0,663274711eb306bc075a1a70,663aca6426db79e41fdd5add,663e57c18d6445507864a88f,0,"{""Q0"":""color""}",lavender,attention_category
663e58a28e1507bd70f61803,7547,html-button-response,26,96433,0,663274711eb306bc075a1a70,663aca6426db79e41fdd5add,663e57c18d6445507864a88f,0,0,,
663e58a28e1507bd70f61805,5835,survey-multi-choice,27,102276,0,663274711eb306bc075a1a70,663aca6426db79e41fdd5add,663e57c18d6445507864a88f,0,"{""Q0"":""solid""}","In the sentence [this is a block of metal], a block of metal is:",practice_solidity
663e58a28e1507bd70f61807,6983,survey-multi-choice,28,110010,0,663274711eb306bc075a1a70,663aca6426db79e41fdd5add,663e57c18d6445507864a88f,0,"{""Q0"":""solid""}","In the sentence [this is a pile of sand], a pile of sand is:",practice_solidity
663e58a28e1507bd70f61809,3638,survey-multi-choice,29,114704,0,663274711eb306bc075a1a70,663aca6426db79e41fdd5add,663e57c18d6445507864a88f,0,"{""Q0"":""solid""}",bowl,solidity
663e58a28e1507bd70f6180b,1982,survey-multi-choice,30,116699,0,663274711eb306bc075a1a70,663aca6426db79e41fdd5add,663e57c18d6445507864a88f,0,"{""Q0"":""solid""}",bear,solidity
663e58a28e1507bd70f6180d,2685,survey-multi-choice,31,119396,0,663274711eb306bc075a1a70,663aca6426db79e41fdd5add,663e57c18d6445507864a88f,0,"{""Q0"":""solid""}",bat (object),solidity
663e58a28e1507bd70f6180f,1977,survey-multi-choice,32,121384,0,663274711eb306bc075a1a70,663aca6426db79e41fdd5add,663e57c18d6445507864a88f,0,"{""Q0"":""solid""}",fish (animal),solidity
663e58a28e1507bd70f61811,4634,survey-multi-choice,33,126026,0,663274711eb306bc075a1a70,663aca6426db79e41fdd5add,663e57c18d6445507864a88f,0,"{""Q0"":""non-solid""}",vacuum,solidity
663e58a28e1507bd70f61813,1845,survey-multi-choice,34,127885,0,663274711eb306bc075a1a70,663aca6426db79e41fdd5add,663e57c18d6445507864a88f,0,"{""Q0"":""solid""}",bus,solidity
663e58a28e1507bd70f61815,2209,survey-multi-choice,35,130105,0,663274711eb306bc075a1a70,663aca6426db79e41fdd5add,663e57c18d6445507864a88f,0,"{""Q0"":""solid""}",dress (object),solidity
663e58a28e1507bd70f61817,1839,survey-multi-choice,36,131956,0,663274711eb306bc075a1a70,663aca6426db79e41fdd5add,663e57c18d6445507864a88f,0,"{""Q0"":""solid""}",sock,solidity
663e58a28e1507bd70f61819,1907,survey-multi-choice,37,133875,0,663274711eb306bc075a1a70,663aca6426db79e41fdd5add,663e57c18d6445507864a88f,0,"{""Q0"":""solid""}",boat,solidity
663e58a28e1507bd70f6181b,1854,survey-multi-choice,38,135738,0,663274711eb306bc075a1a70,663aca6426db79e41fdd5add,663e57c18d6445507864a88f,0,"{""Q0"":""solid""}",cup,solidity
663e58a28e1507bd70f6181d,3158,survey-multi-choice,39,138903,0,663274711eb306bc075a1a70,663aca6426db79e41fdd5add,663e57c18d6445507864a88f,0,"{""Q0"":""non-solid""}",light (object),solidity
663e58a28e1507bd70f6181f,1685,survey-multi-choice,40,140603,0,663274711eb306bc075a1a70,663aca6426db79e41fdd5add,663e57c18d6445507864a88f,0,"{""Q0"":""solid""}",comb (object),solidity
663e58a28e1507bd70f61821,2026,survey-multi-choice,41,142643,0,663274711eb306bc075a1a70,663aca6426db79e41fdd5add,663e57c18d6445507864a88f,0,"{""Q0"":""solid""}",popsicle,solidity
663e58a28e1507bd70f61823,1702,survey-multi-choice,42,144357,0,663274711eb306bc075a1a70,663aca6426db79e41fdd5add,663e57c18d6445507864a88f,0,"{""Q0"":""solid""}",bedroom,solidity
663e58a28e1507bd70f61825,1885,survey-multi-choice,43,146250,0,663274711eb306bc075a1a70,663aca6426db79e41fdd5add,663e57c18d6445507864a88f,0,"{""Q0"":""non-solid""}",shower,solidity
663e58a28e1507bd70f61827,1582,survey-multi-choice,44,147838,0,663274711eb306bc075a1a70,663aca6426db79e41fdd5add,663e57c18d6445507864a88f,0,"{""Q0"":""solid""}",spoon,solidity
663e58a28e1507bd70f61829,1444,survey-multi-choice,45,149295,0,663274711eb306bc075a1a70,663aca6426db79e41fdd5add,663e57c18d6445507864a88f,0,"{""Q0"":""solid""}",egg,solidity
663e58a28e1507bd70f6182b,1452,survey-multi-choice,46,150764,0,663274711eb306bc075a1a70,663aca6426db79e41fdd5add,663e57c18d6445507864a88f,0,"{""Q0"":""solid""}",car,solidity
663e58a28e1507bd70f6182d,1536,survey-multi-choice,47,152317,0,663274711eb306bc075a1a70,663aca6426db79e41fdd5add,663e57c18d6445507864a88f,0,"{""Q0"":""solid""}",turtle,solidity
663e58a28e1507bd70f6182f,1498,survey-multi-choice,48,153830,0,663274711eb306bc075a1a70,663aca6426db79e41fdd5add,663e57c18d6445507864a88f,0,"{""Q0"":""solid""}",cat,solidity
663e58a28e1507bd70f61831,2917,survey-multi-choice,49,156757,0,663274711eb306bc075a1a70,663aca6426db79e41fdd5add,663e57c18d6445507864a88f,0,"{""Q0"":""non-solid""}",purple,attention_solidity
663e58a38e1507bd70f61833,4504,html-button-response,50,161281,0,663274711eb306bc075a1a70,663aca6426db79e41fdd5add,663e57c18d6445507864a88f,0,0,,
663e58a38e1507bd70f61835,3896,survey-multi-choice,51,165186,0,663274711eb306bc075a1a70,663aca6426db79e41fdd5add,663e57c18d6445507864a88f,0,"{""Q0"":""count noun""}"," In the sentence [would you like a Chair?], a chair is:",practice_countmass
663e58a38e1507bd70f61837,3187,survey-multi-choice,52,169252,0,663274711eb306bc075a1a70,663aca6426db79e41fdd5add,663e57c18d6445507864a88f,0,"{""Q0"":""mass noun""}"," In the sentence [This is so much sugar?], sugar is: ",practice_countmass
663e58a38e1507bd70f61839,4892,survey-multi-choice,53,174844,0,663274711eb306bc075a1a70,663aca6426db79e41fdd5add,663e57c18d6445507864a88f,0,"{""Q0"":""count noun""}",bee,count_mass
663e58a38e1507bd70f6183b,1556,survey-multi-choice,54,176414,0,663274711eb306bc075a1a70,663aca6426db79e41fdd5add,663e57c18d6445507864a88f,0,"{""Q0"":""count noun""}",orange (food),count_mass
663e58a38e1507bd70f6183d,2044,survey-multi-choice,55,178466,0,663274711eb306bc075a1a70,663aca6426db79e41fdd5add,663e57c18d6445507864a88f,0,"{""Q0"":""count noun""}",stick,count_mass
663e58a38e1507bd70f6183f,1653,survey-multi-choice,56,180130,0,663274711eb306bc075a1a70,663aca6426db79e41fdd5add,663e57c18d6445507864a88f,0,"{""Q0"":""count noun""}",soup,count_mass
663e58a38e1507bd70f61841,1822,survey-multi-choice,57,181966,0,663274711eb306bc075a1a70,663aca6426db79e41fdd5add,663e57c18d6445507864a88f,0,"{""Q0"":""mass noun""}",peas,count_mass
663e58a38e1507bd70f61843,1646,survey-multi-choice,58,183625,0,663274711eb306bc075a1a70,663aca6426db79e41fdd5add,663e57c18d6445507864a88f,0,"{""Q0"":""count noun""}",apple,count_mass
663e58a38e1507bd70f61845,1583,survey-multi-choice,59,185211,0,663274711eb306bc075a1a70,663aca6426db79e41fdd5add,663e57c18d6445507864a88f,0,"{""Q0"":""count noun""}",penguin,count_mass
663e58a38e1507bd70f61847,1520,survey-multi-choice,60,186744,0,663274711eb306bc075a1a70,663aca6426db79e41fdd5add,663e57c18d6445507864a88f,0,"{""Q0"":""count noun""}",tractor,count_mass
663e58a38e1507bd70f61849,1785,survey-multi-choice,61,188542,0,663274711eb306bc075a1a70,663aca6426db79e41fdd5add,663e57c18d6445507864a88f,0,"{""Q0"":""count noun""}",arm,count_mass
663e58a38e1507bd70f6184b,1714,survey-multi-choice,62,190271,0,663274711eb306bc075a1a70,663aca6426db79e41fdd5add,663e57c18d6445507864a88f,0,"{""Q0"":""count noun""}",glasses,count_mass
663e58a38e1507bd70f6184d,1743,survey-multi-choice,63,192031,0,663274711eb306bc075a1a70,663aca6426db79e41fdd5add,663e57c18d6445507864a88f,0,"{""Q0"":""count noun""}",present,count_mass
663e58a38e1507bd70f6184f,1636,survey-multi-choice,64,193680,0,663274711eb306bc075a1a70,663aca6426db79e41fdd5add,663e57c18d6445507864a88f,0,"{""Q0"":""count noun""}",hat,count_mass
663e58a38e1507bd70f61851,1509,survey-multi-choice,65,195201,0,663274711eb306bc075a1a70,663aca6426db79e41fdd5add,663e57c18d6445507864a88f,0,"{""Q0"":""count noun""}",lip,count_mass
663e58a38e1507bd70f61853,1785,survey-multi-choice,66,196993,0,663274711eb306bc075a1a70,663aca6426db79e41fdd5add,663e57c18d6445507864a88f,0,"{""Q0"":""count noun""}",nose,count_mass
663e58a38e1507bd70f61855,1499,survey-multi-choice,67,198505,0,663274711eb306bc075a1a70,663aca6426db79e41fdd5add,663e57c18d6445507864a88f,0,"{""Q0"":""count noun""}",cat,count_mass
663e58a38e1507bd70f61857,1444,survey-multi-choice,68,199961,0,663274711eb306bc075a1a70,663aca6426db79e41fdd5add,663e57c18d6445507864a88f,0,"{""Q0"":""count noun""}",shoe,count_mass
663e58a38e1507bd70f61859,1476,survey-multi-choice,69,201453,0,663274711eb306bc075a1a70,663aca6426db79e41fdd5add,663e57c18d6445507864a88f,0,"{""Q0"":""count noun""}",truck,count_mass
663e58a38e1507bd70f6185b,2340,survey-multi-choice,70,203805,0,663274711eb306bc075a1a70,663aca6426db79e41fdd5add,663e57c18d6445507864a88f,0,"{""Q0"":""mass noun""}",food,count_mass
663e58a38e1507bd70f6185d,1720,survey-multi-choice,71,205531,0,663274711eb306bc075a1a70,663aca6426db79e41fdd5add,663e57c18d6445507864a88f,0,"{""Q0"":""count noun""}",fish (animal),count_mass
663e58a38e1507bd70f6185f,3027,survey-multi-choice,72,208564,0,663274711eb306bc075a1a70,663aca6426db79e41fdd5add,663e57c18d6445507864a88f,0,"{""Q0"":""count noun""}",tree,count_mass
663e58a38e1507bd70f61861,2986,survey-multi-choice,73,211565,0,663274711eb306bc075a1a70,663aca6426db79e41fdd5add,663e57c18d6445507864a88f,0,"{""Q0"":""unclear/unknown""}",grey,attention_countmass
663e58a38e1507bd70f61863,2570,instructions,74,214144,0,663274711eb306bc075a1a70,663aca6426db79e41fdd5add,663e57c18d6445507864a88f,0,,,
663e58a88e1507bd70f61865,5368,instructions,0,5371,0,5ea55df76205ad53a793bc01,663aca6426db79e41fdd5add,663e56d2ef4a7ecba6ecbffd,0,,,
663e58a88e1507bd70f61867,4975,instructions,1,10348,0,5ea55df76205ad53a793bc01,663aca6426db79e41fdd5add,663e56d2ef4a7ecba6ecbffd,0,,,
663e58a88e1507bd70f61869,5625,survey-multi-choice,3,37314,0,5ea55df76205ad53a793bc01,663aca6426db79e41fdd5add,663e56d2ef4a7ecba6ecbffd,0,"{""Q0"":""solid""}","In the sentence [this is a block of metal], a block of metal is:",practice_solidity
663e58a88e1507bd70f6186b,6240,survey-multi-choice,4,47996,0,5ea55df76205ad53a793bc01,663aca6426db79e41fdd5add,663e56d2ef4a7ecba6ecbffd,0,"{""Q0"":""solid""}","In the sentence [this is a pile of sand], a pile of sand is:",practice_solidity
663e58a88e1507bd70f6186d,3382,survey-multi-choice,5,55010,0,5ea55df76205ad53a793bc01,663aca6426db79e41fdd5add,663e56d2ef4a7ecba6ecbffd,0,"{""Q0"":""solid""}",hair dryer,solidity
663e58a88e1507bd70f6186f,21332,html-button-response,2,31684,0,5ea55df76205ad53a793bc01,663aca6426db79e41fdd5add,663e56d2ef4a7ecba6ecbffd,0,0,,
663e58a88e1507bd70f61871,7365,survey-multi-choice,6,62381,0,5ea55df76205ad53a793bc01,663aca6426db79e41fdd5add,663e56d2ef4a7ecba6ecbffd,0,"{""Q0"":""non-solid""}",taco,solidity
663e58a88e1507bd70f61873,4429,survey-multi-choice,7,66812,0,5ea55df76205ad53a793bc01,663aca6426db79e41fdd5add,663e56d2ef4a7ecba6ecbffd,0,"{""Q0"":""solid""}",keys,solidity
663e58a88e1507bd70f61875,3291,survey-multi-choice,9,73307,0,5ea55df76205ad53a793bc01,663aca6426db79e41fdd5add,663e56d2ef4a7ecba6ecbffd,0,"{""Q0"":""solid""}",back,solidity
663e58a88e1507bd70f61877,3198,survey-multi-choice,8,70013,0,5ea55df76205ad53a793bc01,663aca6426db79e41fdd5add,663e56d2ef4a7ecba6ecbffd,0,"{""Q0"":""solid""}",forehead,solidity
663e58a88e1507bd70f61879,3464,survey-multi-choice,10,76773,0,5ea55df76205ad53a793bc01,663aca6426db79e41fdd5add,663e56d2ef4a7ecba6ecbffd,0,"{""Q0"":""non-solid""}",chili,solidity
663e58a88e1507bd70f6187b,2896,survey-multi-choice,11,79671,0,5ea55df76205ad53a793bc01,663aca6426db79e41fdd5add,663e56d2ef4a7ecba6ecbffd,0,"{""Q0"":""solid""}",puppet,solidity
663e58a88e1507bd70f6187d,2960,survey-multi-choice,12,82635,0,5ea55df76205ad53a793bc01,663aca6426db79e41fdd5add,663e56d2ef4a7ecba6ecbffd,0,"{""Q0"":""non-solid""}",worm,solidity
663e58a88e1507bd70f6187f,4732,survey-multi-choice,13,87371,0,5ea55df76205ad53a793bc01,663aca6426db79e41fdd5add,663e56d2ef4a7ecba6ecbffd,0,"{""Q0"":""solid""}",bandaid,solidity
663e58a88e1507bd70f61881,4067,survey-multi-choice,15,94517,0,5ea55df76205ad53a793bc01,663aca6426db79e41fdd5add,663e56d2ef4a7ecba6ecbffd,0,"{""Q0"":""solid""}",armchair,solidity
663e58a88e1507bd70f61883,3074,survey-multi-choice,14,90448,0,5ea55df76205ad53a793bc01,663aca6426db79e41fdd5add,663e56d2ef4a7ecba6ecbffd,0,"{""Q0"":""non-solid""}",rabbit,solidity
663e58a88e1507bd70f61885,3478,survey-multi-choice,16,97997,0,5ea55df76205ad53a793bc01,663aca6426db79e41fdd5add,663e56d2ef4a7ecba6ecbffd,0,"{""Q0"":""solid""}",guitar,solidity
663e58a88e1507bd70f61887,2773,survey-multi-choice,17,100772,0,5ea55df76205ad53a793bc01,663aca6426db79e41fdd5add,663e56d2ef4a7ecba6ecbffd,0,"{""Q0"":""non-solid""}",cherry,solidity
663e58a88e1507bd70f61889,7226,survey-multi-choice,18,108001,0,5ea55df76205ad53a793bc01,663aca6426db79e41fdd5add,663e56d2ef4a7ecba6ecbffd,0,"{""Q0"":""non-solid""}",sweets,solidity
663e58a98e1507bd70f6188b,2347,survey-multi-choice,19,110351,0,5ea55df76205ad53a793bc01,663aca6426db79e41fdd5add,663e56d2ef4a7ecba6ecbffd,0,"{""Q0"":""solid""}",gloves,solidity
663e58a98e1507bd70f6188d,4649,survey-multi-choice,20,115001,0,5ea55df76205ad53a793bc01,663aca6426db79e41fdd5add,663e56d2ef4a7ecba6ecbffd,0,"{""Q0"":""non-solid""}",tortilla,solidity
663e58a98e1507bd70f6188f,2407,survey-multi-choice,21,117410,0,5ea55df76205ad53a793bc01,663aca6426db79e41fdd5add,663e56d2ef4a7ecba6ecbffd,0,"{""Q0"":""unclear/unknown""}",push,solidity
663e58a98e1507bd70f61891,3585,survey-multi-choice,22,120997,0,5ea55df76205ad53a793bc01,663aca6426db79e41fdd5add,663e56d2ef4a7ecba6ecbffd,0,"{""Q0"":""solid""}",iron (object),solidity
663e58a98e1507bd70f61893,11740,survey-multi-choice,23,132738,0,5ea55df76205ad53a793bc01,663aca6426db79e41fdd5add,663e56d2ef4a7ecba6ecbffd,0,"{""Q0"":""unclear/unknown""}",video,solidity
663e58a98e1507bd70f61895,2053,survey-multi-choice,24,134792,0,5ea55df76205ad53a793bc01,663aca6426db79e41fdd5add,663e56d2ef4a7ecba6ecbffd,0,"{""Q0"":""solid""}",album,solidity
663e58a98e1507bd70f61897,2968,survey-multi-choice,25,137763,0,5ea55df76205ad53a793bc01,663aca6426db79e41fdd5add,663e56d2ef4a7ecba6ecbffd,0,"{""Q0"":""solid""}",purple,attention_solidity
663e58a98e1507bd70f61899,38476,html-button-response,26,176243,0,5ea55df76205ad53a793bc01,663aca6426db79e41fdd5add,663e56d2ef4a7ecba6ecbffd,0,0,,
663e58a98e1507bd70f6189b,8846,survey-multi-choice,27,185092,0,5ea55df76205ad53a793bc01,663aca6426db79e41fdd5add,663e56d2ef4a7ecba6ecbffd,0,"{""Q0"":""shape""}","In the sentence [this is a square table], a 'square' belongs to a category that is organized by:",practice_category
663e58a98e1507bd70f6189d,5615,survey-multi-choice,28,193078,0,5ea55df76205ad53a793bc01,663aca6426db79e41fdd5add,663e56d2ef4a7ecba6ecbffd,0,"{""Q0"":""color""}","In the sentence [this is a red table], 'red' belongs to a category that is organized by:",practice_category
663e58a98e1507bd70f6189f,7023,survey-multi-choice,29,202064,0,5ea55df76205ad53a793bc01,663aca6426db79e41fdd5add,663e56d2ef4a7ecba6ecbffd,0,"{""Q0"":""material""}",ham,category_organization
663e58a98e1507bd70f618a1,7822,survey-multi-choice,30,209891,0,5ea55df76205ad53a793bc01,663aca6426db79e41fdd5add,663e56d2ef4a7ecba6ecbffd,0,"{""Q0"":""material""}",icicle,category_organization
663e58a98e1507bd70f618a3,3863,survey-multi-choice,31,213756,0,5ea55df76205ad53a793bc01,663aca6426db79e41fdd5add,663e56d2ef4a7ecba6ecbffd,0,"{""Q0"":""material""}",cupboard,category_organization
663e58a98e1507bd70f618a5,4520,survey-multi-choice,32,218277,0,5ea55df76205ad53a793bc01,663aca6426db79e41fdd5add,663e56d2ef4a7ecba6ecbffd,0,"{""Q0"":""material""}",river,category_organization
663e58a98e1507bd70f618a7,5165,survey-multi-choice,33,223445,0,5ea55df76205ad53a793bc01,663aca6426db79e41fdd5add,663e56d2ef4a7ecba6ecbffd,0,"{""Q0"":""material""}",parrot,category_organization
663e58a98e1507bd70f618a9,3163,survey-multi-choice,34,226611,0,5ea55df76205ad53a793bc01,663aca6426db79e41fdd5add,663e56d2ef4a7ecba6ecbffd,0,"{""Q0"":""material""}",elbow,category_organization
663e58a98e1507bd70f618ab,4596,survey-multi-choice,35,231209,0,5ea55df76205ad53a793bc01,663aca6426db79e41fdd5add,663e56d2ef4a7ecba6ecbffd,0,"{""Q0"":""none of these""}",atole,category_organization
663e58a98e1507bd70f618ad,3649,survey-multi-choice,36,234861,0,5ea55df76205ad53a793bc01,663aca6426db79e41fdd5add,663e56d2ef4a7ecba6ecbffd,0,"{""Q0"":""material""}",drum,category_organization
663e58a98e1507bd70f618af,3417,survey-multi-choice,37,238281,0,5ea55df76205ad53a793bc01,663aca6426db79e41fdd5add,663e56d2ef4a7ecba6ecbffd,0,"{""Q0"":""material""}",ladybug,category_organization
663e58a98e1507bd70f618b1,3748,survey-multi-choice,38,242032,0,5ea55df76205ad53a793bc01,663aca6426db79e41fdd5add,663e56d2ef4a7ecba6ecbffd,0,"{""Q0"":""material""}",bench,category_organization
663e58a98e1507bd70f618b3,2782,survey-multi-choice,39,244817,0,5ea55df76205ad53a793bc01,663aca6426db79e41fdd5add,663e56d2ef4a7ecba6ecbffd,0,"{""Q0"":""material""}",gut,category_organization
663e58a98e1507bd70f618b5,2984,survey-multi-choice,40,247803,0,5ea55df76205ad53a793bc01,663aca6426db79e41fdd5add,663e56d2ef4a7ecba6ecbffd,0,"{""Q0"":""material""}",clay,category_organization
663e58a98e1507bd70f618b7,2902,survey-multi-choice,42,253690,0,5ea55df76205ad53a793bc01,663aca6426db79e41fdd5add,663e56d2ef4a7ecba6ecbffd,0,"{""Q0"":""material""}",plug,category_organization
663e58a98e1507bd70f618b9,2979,survey-multi-choice,41,250786,0,5ea55df76205ad53a793bc01,663aca6426db79e41fdd5add,663e56d2ef4a7ecba6ecbffd,0,"{""Q0"":""material""}",rake (object),category_organization
663e58a98e1507bd70f618bb,4536,survey-multi-choice,43,258228,0,5ea55df76205ad53a793bc01,663aca6426db79e41fdd5add,663e56d2ef4a7ecba6ecbffd,0,"{""Q0"":""material""}",snack,category_organization
663e58a98e1507bd70f618bd,3468,survey-multi-choice,44,261699,0,5ea55df76205ad53a793bc01,663aca6426db79e41fdd5add,663e56d2ef4a7ecba6ecbffd,0,"{""Q0"":""material""}",back,category_organization
663e58a98e1507bd70f618bf,2436,survey-multi-choice,45,264138,0,5ea55df76205ad53a793bc01,663aca6426db79e41fdd5add,663e56d2ef4a7ecba6ecbffd,0,"{""Q0"":""material""}",matches,category_organization
663e58a98e1507bd70f618c1,2874,survey-multi-choice,46,267014,0,5ea55df76205ad53a793bc01,663aca6426db79e41fdd5add,663e56d2ef4a7ecba6ecbffd,0,"{""Q0"":""material""}",tracksuit,category_organization
663e58a98e1507bd70f618c3,3209,survey-multi-choice,47,270225,0,5ea55df76205ad53a793bc01,663aca6426db79e41fdd5add,663e56d2ef4a7ecba6ecbffd,0,"{""Q0"":""material""}",cap,category_organization
663e58a98e1507bd70f618c5,3140,survey-multi-choice,48,273368,0,5ea55df76205ad53a793bc01,663aca6426db79e41fdd5add,663e56d2ef4a7ecba6ecbffd,0,"{""Q0"":""material""}",guava,category_organization
663e58a98e1507bd70f618c7,2531,survey-multi-choice,49,275904,0,5ea55df76205ad53a793bc01,663aca6426db79e41fdd5add,663e56d2ef4a7ecba6ecbffd,0,"{""Q0"":""color""}",lavender,attention_category
663e58aa8e1507bd70f618c9,54892,html-button-response,50,330802,0,5ea55df76205ad53a793bc01,663aca6426db79e41fdd5add,663e56d2ef4a7ecba6ecbffd,0,0,,
663e58aa8e1507bd70f618cb,9545,survey-multi-choice,51,340352,0,5ea55df76205ad53a793bc01,663aca6426db79e41fdd5add,663e56d2ef4a7ecba6ecbffd,0,"{""Q0"":""count noun""}"," In the sentence [would you like a Chair?], a chair is:",practice_countmass
663e58aa8e1507bd70f618cd,8666,survey-multi-choice,52,351038,0,5ea55df76205ad53a793bc01,663aca6426db79e41fdd5add,663e56d2ef4a7ecba6ecbffd,0,"{""Q0"":""mass noun""}"," In the sentence [This is so much sugar?], sugar is: ",practice_countmass
663e58aa8e1507bd70f618cf,6667,survey-multi-choice,53,359712,0,5ea55df76205ad53a793bc01,663aca6426db79e41fdd5add,663e56d2ef4a7ecba6ecbffd,0,"{""Q0"":""count noun""}",spade,count_mass
663e58aa8e1507bd70f618d1,2636,survey-multi-choice,54,362352,0,5ea55df76205ad53a793bc01,663aca6426db79e41fdd5add,663e56d2ef4a7ecba6ecbffd,0,"{""Q0"":""count noun""}",teapot,count_mass
663e58aa8e1507bd70f618d3,2854,survey-multi-choice,55,365208,0,5ea55df76205ad53a793bc01,663aca6426db79e41fdd5add,663e56d2ef4a7ecba6ecbffd,0,"{""Q0"":""mass noun""}",garbage,count_mass
663e58aa8e1507bd70f618d5,3994,survey-multi-choice,56,369204,0,5ea55df76205ad53a793bc01,663aca6426db79e41fdd5add,663e56d2ef4a7ecba6ecbffd,0,"{""Q0"":""count noun""}",card,count_mass
663e58aa8e1507bd70f618d7,2777,survey-multi-choice,57,371985,0,5ea55df76205ad53a793bc01,663aca6426db79e41fdd5add,663e56d2ef4a7ecba6ecbffd,0,"{""Q0"":""count noun""}",bracelet,count_mass
663e58aa8e1507bd70f618d9,2404,survey-multi-choice,58,374393,0,5ea55df76205ad53a793bc01,663aca6426db79e41fdd5add,663e56d2ef4a7ecba6ecbffd,0,"{""Q0"":""count noun""}",sofa,count_mass
663e58aa8e1507bd70f618db,3613,survey-multi-choice,59,378008,0,5ea55df76205ad53a793bc01,663aca6426db79e41fdd5add,663e56d2ef4a7ecba6ecbffd,0,"{""Q0"":""mass noun""}",coin,count_mass
663e58aa8e1507bd70f618dd,3982,survey-multi-choice,60,381992,0,5ea55df76205ad53a793bc01,663aca6426db79e41fdd5add,663e56d2ef4a7ecba6ecbffd,0,"{""Q0"":""unclear/unknown""}",tarhana,count_mass
663e58aa8e1507bd70f618df,6053,survey-multi-choice,61,388048,0,5ea55df76205ad53a793bc01,663aca6426db79e41fdd5add,663e56d2ef4a7ecba6ecbffd,0,"{""Q0"":""count noun""}",clown,count_mass
663e58aa8e1507bd70f618e1,2620,survey-multi-choice,62,390671,0,5ea55df76205ad53a793bc01,663aca6426db79e41fdd5add,663e56d2ef4a7ecba6ecbffd,0,"{""Q0"":""mass noun""}",ladybug,count_mass
663e58aa8e1507bd70f618e3,6264,survey-multi-choice,63,396938,0,5ea55df76205ad53a793bc01,663aca6426db79e41fdd5add,663e56d2ef4a7ecba6ecbffd,0,"{""Q0"":""mass noun""}",cocoa,count_mass
663e58aa8e1507bd70f618e5,3903,survey-multi-choice,64,400844,0,5ea55df76205ad53a793bc01,663aca6426db79e41fdd5add,663e56d2ef4a7ecba6ecbffd,0,"{""Q0"":""count noun""}",furniture,count_mass
663e58aa8e1507bd70f618e7,8878,survey-multi-choice,65,409727,0,5ea55df76205ad53a793bc01,663aca6426db79e41fdd5add,663e56d2ef4a7ecba6ecbffd,0,"{""Q0"":""unclear/unknown""}",video,count_mass
663e58aa8e1507bd70f618e9,5082,survey-multi-choice,69,426754,0,5ea55df76205ad53a793bc01,663aca6426db79e41fdd5add,663e56d2ef4a7ecba6ecbffd,0,"{""Q0"":""mass noun""}",croquette,count_mass
663e58aa8e1507bd70f618eb,3973,survey-multi-choice,66,413701,0,5ea55df76205ad53a793bc01,663aca6426db79e41fdd5add,663e56d2ef4a7ecba6ecbffd,0,"{""Q0"":""mass noun""}",tape,count_mass
663e58aa8e1507bd70f618ed,3342,survey-multi-choice,68,421669,0,5ea55df76205ad53a793bc01,663aca6426db79e41fdd5add,663e56d2ef4a7ecba6ecbffd,0,"{""Q0"":""count noun""}",rabbit,count_mass
663e58aa8e1507bd70f618f1,4620,survey-multi-choice,67,418325,0,5ea55df76205ad53a793bc01,663aca6426db79e41fdd5add,663e56d2ef4a7ecba6ecbffd,0,"{""Q0"":""count noun""}",vacuum cleaner,count_mass
663e58aa8e1507bd70f618ef,3185,survey-multi-choice,70,429940,0,5ea55df76205ad53a793bc01,663aca6426db79e41fdd5add,663e56d2ef4a7ecba6ecbffd,0,"{""Q0"":""count noun""}",trumpet,count_mass
663e58aa8e1507bd70f618f3,2975,survey-multi-choice,71,432917,0,5ea55df76205ad53a793bc01,663aca6426db79e41fdd5add,663e56d2ef4a7ecba6ecbffd,0,"{""Q0"":""count noun""}",raincoat,count_mass
663e58aa8e1507bd70f618f5,2833,survey-multi-choice,72,435752,0,5ea55df76205ad53a793bc01,663aca6426db79e41fdd5add,663e56d2ef4a7ecba6ecbffd,0,"{""Q0"":""mass noun""}",hole,count_mass
663e58aa8e1507bd70f618f7,3846,instructions,74,444905,0,5ea55df76205ad53a793bc01,663aca6426db79e41fdd5add,663e56d2ef4a7ecba6ecbffd,0,,,
663e58aa8e1507bd70f618f9,5300,survey-multi-choice,73,441057,0,5ea55df76205ad53a793bc01,663aca6426db79e41fdd5add,663e56d2ef4a7ecba6ecbffd,0,"{""Q0"":""count noun""}",grey,attention_countmass
663e58d88e1507bd70f618fb,11790,instructions,0,11793,0,5c79211f477abb00168f7f72,663aca6426db79e41fdd5add,663e575d3a17bd439e4e144d,0,,,
663e58d88e1507bd70f618fd,2941,instructions,1,14735,0,5c79211f477abb00168f7f72,663aca6426db79e41fdd5add,663e575d3a17bd439e4e144d,0,,,
663e58d88e1507bd70f618ff,22422,html-button-response,2,37159,0,5c79211f477abb00168f7f72,663aca6426db79e41fdd5add,663e575d3a17bd439e4e144d,0,0,,
663e58d88e1507bd70f61901,10941,survey-multi-choice,3,48103,0,5c79211f477abb00168f7f72,663aca6426db79e41fdd5add,663e575d3a17bd439e4e144d,0,"{""Q0"":""material""}","In the sentence [this is a square table], a 'square' belongs to a category that is organized by:",practice_category
663e58d88e1507bd70f61903,5161,survey-multi-choice,4,57789,0,5c79211f477abb00168f7f72,663aca6426db79e41fdd5add,663e575d3a17bd439e4e144d,0,"{""Q0"":""shape""}","In the sentence [this is a red table], 'red' belongs to a category that is organized by:",practice_category
663e58d88e1507bd70f61905,6408,survey-multi-choice,5,67191,0,5c79211f477abb00168f7f72,663aca6426db79e41fdd5add,663e575d3a17bd439e4e144d,0,"{""Q0"":""none of these""}",sweet potato,category_organization
663e58d88e1507bd70f61907,4403,survey-multi-choice,6,71598,0,5c79211f477abb00168f7f72,663aca6426db79e41fdd5add,663e575d3a17bd439e4e144d,0,"{""Q0"":""shape""}",faucet,category_organization
663e58d88e1507bd70f61909,5263,survey-multi-choice,7,76862,0,5c79211f477abb00168f7f72,663aca6426db79e41fdd5add,663e575d3a17bd439e4e144d,0,"{""Q0"":""none of these""}",penis,category_organization
663e58d88e1507bd70f6190b,3507,survey-multi-choice,8,80371,0,5c79211f477abb00168f7f72,663aca6426db79e41fdd5add,663e575d3a17bd439e4e144d,0,"{""Q0"":""none of these""}",goat,category_organization
663e58d88e1507bd70f6190d,3341,survey-multi-choice,9,83713,0,5c79211f477abb00168f7f72,663aca6426db79e41fdd5add,663e575d3a17bd439e4e144d,0,"{""Q0"":""none of these""}",tea,category_organization
663e58d88e1507bd70f6190f,3391,survey-multi-choice,11,90887,0,5c79211f477abb00168f7f72,663aca6426db79e41fdd5add,663e575d3a17bd439e4e144d,0,"{""Q0"":""none of these""}",goose,category_organization
663e58d88e1507bd70f61911,3780,survey-multi-choice,10,87494,0,5c79211f477abb00168f7f72,663aca6426db79e41fdd5add,663e575d3a17bd439e4e144d,0,"{""Q0"":""none of these""}",bun,category_organization
663e58d88e1507bd70f61913,2824,survey-multi-choice,12,93712,0,5c79211f477abb00168f7f72,663aca6426db79e41fdd5add,663e575d3a17bd439e4e144d,0,"{""Q0"":""none of these""}",kangaroo,category_organization
663e58d88e1507bd70f61915,4009,survey-multi-choice,13,97722,0,5c79211f477abb00168f7f72,663aca6426db79e41fdd5add,663e575d3a17bd439e4e144d,0,"{""Q0"":""shape""}",garage,category_organization
663e58d88e1507bd70f61917,3439,survey-multi-choice,14,101162,0,5c79211f477abb00168f7f72,663aca6426db79e41fdd5add,663e575d3a17bd439e4e144d,0,"{""Q0"":""shape""}",ball,category_organization
663e58d88e1507bd70f61919,3570,survey-multi-choice,15,104734,0,5c79211f477abb00168f7f72,663aca6426db79e41fdd5add,663e575d3a17bd439e4e144d,0,"{""Q0"":""none of these""}",sugar,category_organization
663e58d88e1507bd70f6191b,3671,survey-multi-choice,16,108406,0,5c79211f477abb00168f7f72,663aca6426db79e41fdd5add,663e575d3a17bd439e4e144d,0,"{""Q0"":""shape""}",can (object),category_organization
663e58d88e1507bd70f6191d,3481,survey-multi-choice,17,111888,0,5c79211f477abb00168f7f72,663aca6426db79e41fdd5add,663e575d3a17bd439e4e144d,0,"{""Q0"":""shape""}",basin,category_organization
663e58d88e1507bd70f6191f,3042,survey-multi-choice,18,114931,0,5c79211f477abb00168f7f72,663aca6426db79e41fdd5add,663e575d3a17bd439e4e144d,0,"{""Q0"":""shape""}",robot,category_organization
663e58d88e1507bd70f61921,6157,survey-multi-choice,19,121090,0,5c79211f477abb00168f7f72,663aca6426db79e41fdd5add,663e575d3a17bd439e4e144d,0,"{""Q0"":""color""}",tangerine,category_organization
663e58d88e1507bd70f61923,4197,survey-multi-choice,20,125288,0,5c79211f477abb00168f7f72,663aca6426db79e41fdd5add,663e575d3a17bd439e4e144d,0,"{""Q0"":""shape""}",sandbox,category_organization
663e58d88e1507bd70f61925,4796,survey-multi-choice,21,130085,0,5c79211f477abb00168f7f72,663aca6426db79e41fdd5add,663e575d3a17bd439e4e144d,0,"{""Q0"":""none of these""}",jello,category_organization
663e58d88e1507bd70f61927,3879,survey-multi-choice,22,133965,0,5c79211f477abb00168f7f72,663aca6426db79e41fdd5add,663e575d3a17bd439e4e144d,0,"{""Q0"":""shape""}",toothpaste,category_organization
663e58d88e1507bd70f61929,3062,survey-multi-choice,23,137029,0,5c79211f477abb00168f7f72,663aca6426db79e41fdd5add,663e575d3a17bd439e4e144d,0,"{""Q0"":""shape""}",trampoline,category_organization
663e58d88e1507bd70f6192b,2984,survey-multi-choice,24,140014,0,5c79211f477abb00168f7f72,663aca6426db79e41fdd5add,663e575d3a17bd439e4e144d,0,"{""Q0"":""none of these""}",dumpling,category_organization
663e58d98e1507bd70f6192d,2844,survey-multi-choice,25,142860,0,5c79211f477abb00168f7f72,663aca6426db79e41fdd5add,663e575d3a17bd439e4e144d,0,"{""Q0"":""color""}",lavender,attention_category
663e58d98e1507bd70f6192f,23261,html-button-response,26,166123,0,5c79211f477abb00168f7f72,663aca6426db79e41fdd5add,663e575d3a17bd439e4e144d,0,0,,
663e58d98e1507bd70f61931,5940,survey-multi-choice,27,172064,0,5c79211f477abb00168f7f72,663aca6426db79e41fdd5add,663e575d3a17bd439e4e144d,0,"{""Q0"":""count noun""}"," In the sentence [would you like a Chair?], a chair is:",practice_countmass
663e58d98e1507bd70f61933,3902,survey-multi-choice,28,177637,0,5c79211f477abb00168f7f72,663aca6426db79e41fdd5add,663e575d3a17bd439e4e144d,0,"{""Q0"":""mass noun""}"," In the sentence [This is so much sugar?], sugar is: ",practice_countmass
663e58d98e1507bd70f61935,4598,survey-multi-choice,29,183928,0,5c79211f477abb00168f7f72,663aca6426db79e41fdd5add,663e575d3a17bd439e4e144d,0,"{""Q0"":""count noun""}",voice recorder,count_mass
663e58d98e1507bd70f61937,2715,survey-multi-choice,30,186645,0,5c79211f477abb00168f7f72,663aca6426db79e41fdd5add,663e575d3a17bd439e4e144d,0,"{""Q0"":""count noun""}",photo,count_mass
663e58d98e1507bd70f61939,6201,survey-multi-choice,31,192847,0,5c79211f477abb00168f7f72,663aca6426db79e41fdd5add,663e575d3a17bd439e4e144d,0,"{""Q0"":""unclear/unknown""}",song,count_mass
663e58d98e1507bd70f6193b,2994,survey-multi-choice,32,195842,0,5c79211f477abb00168f7f72,663aca6426db79e41fdd5add,663e575d3a17bd439e4e144d,0,"{""Q0"":""count noun""}",kangaroo,count_mass
663e58d98e1507bd70f6193d,3881,survey-multi-choice,33,199724,0,5c79211f477abb00168f7f72,663aca6426db79e41fdd5add,663e575d3a17bd439e4e144d,0,"{""Q0"":""count noun""}",fire,count_mass
663e58d98e1507bd70f6193f,2836,survey-multi-choice,34,202562,0,5c79211f477abb00168f7f72,663aca6426db79e41fdd5add,663e575d3a17bd439e4e144d,0,"{""Q0"":""count noun""}",battery,count_mass
663e58d98e1507bd70f61941,3004,survey-multi-choice,35,205567,0,5c79211f477abb00168f7f72,663aca6426db79e41fdd5add,663e575d3a17bd439e4e144d,0,"{""Q0"":""count noun""}",crane,count_mass
663e58d98e1507bd70f61943,2945,survey-multi-choice,36,208513,0,5c79211f477abb00168f7f72,663aca6426db79e41fdd5add,663e575d3a17bd439e4e144d,0,"{""Q0"":""count noun""}",cabbage,count_mass
663e58d98e1507bd70f61945,3345,survey-multi-choice,37,211859,0,5c79211f477abb00168f7f72,663aca6426db79e41fdd5add,663e575d3a17bd439e4e144d,0,"{""Q0"":""count noun""}",panda,count_mass
663e58d98e1507bd70f61947,2746,survey-multi-choice,38,214606,0,5c79211f477abb00168f7f72,663aca6426db79e41fdd5add,663e575d3a17bd439e4e144d,0,"{""Q0"":""count noun""}",breast,count_mass
663e58d98e1507bd70f61949,3144,survey-multi-choice,39,217751,0,5c79211f477abb00168f7f72,663aca6426db79e41fdd5add,663e575d3a17bd439e4e144d,0,"{""Q0"":""count noun""}",liver (food),count_mass
663e58d98e1507bd70f6194b,4388,survey-multi-choice,40,222141,0,5c79211f477abb00168f7f72,663aca6426db79e41fdd5add,663e575d3a17bd439e4e144d,0,"{""Q0"":""mass noun""}",backyard,count_mass
663e58d98e1507bd70f6194d,2806,survey-multi-choice,41,224948,0,5c79211f477abb00168f7f72,663aca6426db79e41fdd5add,663e575d3a17bd439e4e144d,0,"{""Q0"":""count noun""}",thumb,count_mass
663e58d98e1507bd70f6194f,2505,survey-multi-choice,42,227455,0,5c79211f477abb00168f7f72,663aca6426db79e41fdd5add,663e575d3a17bd439e4e144d,0,"{""Q0"":""count noun""}",plant,count_mass
663e58d98e1507bd70f61951,2915,survey-multi-choice,44,233069,0,5c79211f477abb00168f7f72,663aca6426db79e41fdd5add,663e575d3a17bd439e4e144d,0,"{""Q0"":""count noun""}",wheel,count_mass
663e58d98e1507bd70f61953,2697,survey-multi-choice,43,230153,0,5c79211f477abb00168f7f72,663aca6426db79e41fdd5add,663e575d3a17bd439e4e144d,0,"{""Q0"":""count noun""}",sweet potato,count_mass
663e58d98e1507bd70f61955,2388,survey-multi-choice,45,235458,0,5c79211f477abb00168f7f72,663aca6426db79e41fdd5add,663e575d3a17bd439e4e144d,0,"{""Q0"":""count noun""}",tangerine,count_mass
663e58d98e1507bd70f61957,2717,survey-multi-choice,46,238177,0,5c79211f477abb00168f7f72,663aca6426db79e41fdd5add,663e575d3a17bd439e4e144d,0,"{""Q0"":""count noun""}",peanut,count_mass
663e58d98e1507bd70f61959,3292,survey-multi-choice,47,241470,0,5c79211f477abb00168f7f72,663aca6426db79e41fdd5add,663e575d3a17bd439e4e144d,0,"{""Q0"":""count noun""}",snowman,count_mass
663e58d98e1507bd70f6195b,2756,survey-multi-choice,48,244227,0,5c79211f477abb00168f7f72,663aca6426db79e41fdd5add,663e575d3a17bd439e4e144d,0,"{""Q0"":""count noun""}",pepper,count_mass
663e58d98e1507bd70f6195d,10889,survey-multi-choice,49,255118,0,5c79211f477abb00168f7f72,663aca6426db79e41fdd5add,663e575d3a17bd439e4e144d,0,"{""Q0"":""unclear/unknown""}",grey,attention_countmass
663e58d98e1507bd70f6195f,27409,html-button-response,50,282528,0,5c79211f477abb00168f7f72,663aca6426db79e41fdd5add,663e575d3a17bd439e4e144d,0,0,,
663e58d98e1507bd70f61961,4984,survey-multi-choice,51,287513,0,5c79211f477abb00168f7f72,663aca6426db79e41fdd5add,663e575d3a17bd439e4e144d,0,"{""Q0"":""solid""}","In the sentence [this is a block of metal], a block of metal is:",practice_solidity
663e58d98e1507bd70f61963,3214,survey-multi-choice,52,292578,0,5c79211f477abb00168f7f72,663aca6426db79e41fdd5add,663e575d3a17bd439e4e144d,0,"{""Q0"":""non-solid""}","In the sentence [this is a pile of sand], a pile of sand is:",practice_solidity
663e58d98e1507bd70f61965,4101,survey-multi-choice,53,298521,0,5c79211f477abb00168f7f72,663aca6426db79e41fdd5add,663e575d3a17bd439e4e144d,0,"{""Q0"":""solid""}",ankle,solidity
663e58d98e1507bd70f61967,2366,survey-multi-choice,54,300888,0,5c79211f477abb00168f7f72,663aca6426db79e41fdd5add,663e575d3a17bd439e4e144d,0,"{""Q0"":""solid""}",flag,solidity
663e58d98e1507bd70f61969,5353,survey-multi-choice,55,306242,0,5c79211f477abb00168f7f72,663aca6426db79e41fdd5add,663e575d3a17bd439e4e144d,0,"{""Q0"":""non-solid""}",glass,solidity
663e58d98e1507bd70f6196b,2945,survey-multi-choice,56,309188,0,5c79211f477abb00168f7f72,663aca6426db79e41fdd5add,663e575d3a17bd439e4e144d,0,"{""Q0"":""solid""}",chopstick,solidity
663e58d98e1507bd70f6196d,2695,survey-multi-choice,57,311885,0,5c79211f477abb00168f7f72,663aca6426db79e41fdd5add,663e575d3a17bd439e4e144d,0,"{""Q0"":""solid""}",hanger,solidity
663e58d98e1507bd70f6196f,2735,survey-multi-choice,58,314622,0,5c79211f477abb00168f7f72,663aca6426db79e41fdd5add,663e575d3a17bd439e4e144d,0,"{""Q0"":""solid""}",pony,solidity
663e58d98e1507bd70f61971,2377,survey-multi-choice,59,317000,0,5c79211f477abb00168f7f72,663aca6426db79e41fdd5add,663e575d3a17bd439e4e144d,0,"{""Q0"":""solid""}",trampoline,solidity
663e58d98e1507bd70f61973,3066,survey-multi-choice,60,320068,0,5c79211f477abb00168f7f72,663aca6426db79e41fdd5add,663e575d3a17bd439e4e144d,0,"{""Q0"":""non-solid""}",sauce,solidity
663e58da8e1507bd70f61975,4098,survey-multi-choice,61,324167,0,5c79211f477abb00168f7f72,663aca6426db79e41fdd5add,663e575d3a17bd439e4e144d,0,"{""Q0"":""solid""}",calf,solidity
663e58da8e1507bd70f61977,4111,survey-multi-choice,62,328279,0,5c79211f477abb00168f7f72,663aca6426db79e41fdd5add,663e575d3a17bd439e4e144d,0,"{""Q0"":""solid""}",mango,solidity
663e58da8e1507bd70f61979,3782,survey-multi-choice,63,332062,0,5c79211f477abb00168f7f72,663aca6426db79e41fdd5add,663e575d3a17bd439e4e144d,0,"{""Q0"":""non-solid""}",dried seaweed,solidity
663e58da8e1507bd70f6197b,2668,survey-multi-choice,64,334731,0,5c79211f477abb00168f7f72,663aca6426db79e41fdd5add,663e575d3a17bd439e4e144d,0,"{""Q0"":""solid""}",ball,solidity
663e58da8e1507bd70f6197d,3433,survey-multi-choice,65,338166,0,5c79211f477abb00168f7f72,663aca6426db79e41fdd5add,663e575d3a17bd439e4e144d,0,"{""Q0"":""unclear/unknown""}",eyebrow,solidity
663e58da8e1507bd70f6197f,2726,survey-multi-choice,66,340893,0,5c79211f477abb00168f7f72,663aca6426db79e41fdd5add,663e575d3a17bd439e4e144d,0,"{""Q0"":""solid""}",newspaper,solidity
663e58da8e1507bd70f61981,2895,survey-multi-choice,67,343789,0,5c79211f477abb00168f7f72,663aca6426db79e41fdd5add,663e575d3a17bd439e4e144d,0,"{""Q0"":""solid""}",scallion,solidity
663e58da8e1507bd70f61983,2627,survey-multi-choice,68,346418,0,5c79211f477abb00168f7f72,663aca6426db79e41fdd5add,663e575d3a17bd439e4e144d,0,"{""Q0"":""non-solid""}",wood,solidity
663e58da8e1507bd70f61985,2907,survey-multi-choice,69,349326,0,5c79211f477abb00168f7f72,663aca6426db79e41fdd5add,663e575d3a17bd439e4e144d,0,"{""Q0"":""non-solid""}",thing,solidity
663e58da8e1507bd70f61987,3442,survey-multi-choice,70,352769,0,5c79211f477abb00168f7f72,663aca6426db79e41fdd5add,663e575d3a17bd439e4e144d,0,"{""Q0"":""solid""}",persimmon,solidity
663e58da8e1507bd70f61989,2747,survey-multi-choice,71,355517,0,5c79211f477abb00168f7f72,663aca6426db79e41fdd5add,663e575d3a17bd439e4e144d,0,"{""Q0"":""non-solid""}",sand,solidity
663e58da8e1507bd70f6198b,2549,survey-multi-choice,72,358067,0,5c79211f477abb00168f7f72,663aca6426db79e41fdd5add,663e575d3a17bd439e4e144d,0,"{""Q0"":""solid""}",wallet,solidity
663e58da8e1507bd70f6198d,2466,survey-multi-choice,73,360535,0,5c79211f477abb00168f7f72,663aca6426db79e41fdd5add,663e575d3a17bd439e4e144d,0,"{""Q0"":""solid""}",purple,attention_solidity
663e58da8e1507bd70f6198f,4051,instructions,74,364588,0,5c79211f477abb00168f7f72,663aca6426db79e41fdd5add,663e575d3a17bd439e4e144d,0,,,
663e58df8e1507bd70f61991,10537,instructions,0,10550,0,56c5c6489b720300057af888,663aca6426db79e41fdd5add,663e5723f022dcb18d241d3c,0,,,
663e58df8e1507bd70f61993,3686,instructions,1,14237,0,56c5c6489b720300057af888,663aca6426db79e41fdd5add,663e5723f022dcb18d241d3c,0,,,
663e58df8e1507bd70f61995,16297,html-button-response,2,30538,0,56c5c6489b720300057af888,663aca6426db79e41fdd5add,663e5723f022dcb18d241d3c,0,0,,
663e58df8e1507bd70f61997,6335,survey-multi-choice,3,36879,0,56c5c6489b720300057af888,663aca6426db79e41fdd5add,663e5723f022dcb18d241d3c,0,"{""Q0"":""solid""}","In the sentence [this is a block of metal], a block of metal is:",practice_solidity
663e58df8e1507bd70f61999,6359,survey-multi-choice,4,46157,0,56c5c6489b720300057af888,663aca6426db79e41fdd5add,663e5723f022dcb18d241d3c,0,"{""Q0"":""non-solid""}","In the sentence [this is a pile of sand], a pile of sand is:",practice_solidity
663e58df8e1507bd70f6199b,4090,survey-multi-choice,5,52632,0,56c5c6489b720300057af888,663aca6426db79e41fdd5add,663e5723f022dcb18d241d3c,0,"{""Q0"":""unclear/unknown""}",bag,solidity
663e58df8e1507bd70f6199d,3380,survey-multi-choice,6,56014,0,56c5c6489b720300057af888,663aca6426db79e41fdd5add,663e5723f022dcb18d241d3c,0,"{""Q0"":""solid""}",high chair,solidity
663e58df8e1507bd70f6199f,3525,survey-multi-choice,7,59540,0,56c5c6489b720300057af888,663aca6426db79e41fdd5add,663e5723f022dcb18d241d3c,0,"{""Q0"":""non-solid""}",sleeve,solidity
663e58df8e1507bd70f619a1,2352,survey-multi-choice,8,61893,0,56c5c6489b720300057af888,663aca6426db79e41fdd5add,663e5723f022dcb18d241d3c,0,"{""Q0"":""solid""}",drawer,solidity
663e58df8e1507bd70f619a3,7045,survey-multi-choice,9,68938,0,56c5c6489b720300057af888,663aca6426db79e41fdd5add,663e5723f022dcb18d241d3c,0,"{""Q0"":""unclear/unknown""}",back (body part),solidity
663e58df8e1507bd70f619a5,8571,survey-multi-choice,10,77510,0,56c5c6489b720300057af888,663aca6426db79e41fdd5add,663e5723f022dcb18d241d3c,0,"{""Q0"":""unclear/unknown""}",kite,solidity
663e58df8e1507bd70f619a7,3897,survey-multi-choice,11,81408,0,56c5c6489b720300057af888,663aca6426db79e41fdd5add,663e5723f022dcb18d241d3c,0,"{""Q0"":""unclear/unknown""}",fly (animal),solidity
663e58df8e1507bd70f619a9,3493,survey-multi-choice,12,84902,0,56c5c6489b720300057af888,663aca6426db79e41fdd5add,663e5723f022dcb18d241d3c,0,"{""Q0"":""unclear/unknown""}",sparrow,solidity
663e58df8e1507bd70f619ab,2712,survey-multi-choice,13,87614,0,56c5c6489b720300057af888,663aca6426db79e41fdd5add,663e5723f022dcb18d241d3c,0,"{""Q0"":""unclear/unknown""}",wolf,solidity
663e58df8e1507bd70f619ad,5817,survey-multi-choice,14,93432,0,56c5c6489b720300057af888,663aca6426db79e41fdd5add,663e5723f022dcb18d241d3c,0,"{""Q0"":""non-solid""}",glue (object),solidity
663e58df8e1507bd70f619af,2824,survey-multi-choice,15,96256,0,56c5c6489b720300057af888,663aca6426db79e41fdd5add,663e5723f022dcb18d241d3c,0,"{""Q0"":""solid""}",backyard,solidity
663e58df8e1507bd70f619b1,2585,survey-multi-choice,16,98842,0,56c5c6489b720300057af888,663aca6426db79e41fdd5add,663e5723f022dcb18d241d3c,0,"{""Q0"":""solid""}",piano,solidity
663e58df8e1507bd70f619b3,2603,survey-multi-choice,17,101446,0,56c5c6489b720300057af888,663aca6426db79e41fdd5add,663e5723f022dcb18d241d3c,0,"{""Q0"":""unclear/unknown""}",hippopotamus,solidity
663e58df8e1507bd70f619b5,2592,survey-multi-choice,18,104038,0,56c5c6489b720300057af888,663aca6426db79e41fdd5add,663e5723f022dcb18d241d3c,0,"{""Q0"":""solid""}",balcony,solidity
663e58df8e1507bd70f619b7,3063,survey-multi-choice,19,107102,0,56c5c6489b720300057af888,663aca6426db79e41fdd5add,663e5723f022dcb18d241d3c,0,"{""Q0"":""non-solid""}",vinegar,solidity
663e58df8e1507bd70f619b9,4196,survey-multi-choice,20,111298,0,56c5c6489b720300057af888,663aca6426db79e41fdd5add,663e5723f022dcb18d241d3c,0,"{""Q0"":""non-solid""}",ball,solidity
663e58df8e1507bd70f619bb,4001,survey-multi-choice,21,115300,0,56c5c6489b720300057af888,663aca6426db79e41fdd5add,663e5723f022dcb18d241d3c,0,"{""Q0"":""solid""}",boulder,solidity
663e58df8e1507bd70f619bd,2991,survey-multi-choice,22,118292,0,56c5c6489b720300057af888,663aca6426db79e41fdd5add,663e5723f022dcb18d241d3c,0,"{""Q0"":""non-solid""}",plant,solidity
663e58df8e1507bd70f619bf,3271,survey-multi-choice,23,121564,0,56c5c6489b720300057af888,663aca6426db79e41fdd5add,663e5723f022dcb18d241d3c,0,"{""Q0"":""unclear/unknown""}",camel,solidity
663e58df8e1507bd70f619c1,3849,survey-multi-choice,24,125414,0,56c5c6489b720300057af888,663aca6426db79e41fdd5add,663e5723f022dcb18d241d3c,0,"{""Q0"":""solid""}",dress shoe,solidity
663e58df8e1507bd70f619c3,2821,survey-multi-choice,25,128235,0,56c5c6489b720300057af888,663aca6426db79e41fdd5add,663e5723f022dcb18d241d3c,0,"{""Q0"":""solid""}",purple,attention_solidity
663e58df8e1507bd70f619c5,37030,html-button-response,26,165266,0,56c5c6489b720300057af888,663aca6426db79e41fdd5add,663e5723f022dcb18d241d3c,0,0,,
663e58df8e1507bd70f619c7,6938,survey-multi-choice,27,172205,0,56c5c6489b720300057af888,663aca6426db79e41fdd5add,663e5723f022dcb18d241d3c,0,"{""Q0"":""shape""}","In the sentence [this is a square table], a 'square' belongs to a category that is organized by:",practice_category
663e58e08e1507bd70f619c9,4985,survey-multi-choice,28,179530,0,56c5c6489b720300057af888,663aca6426db79e41fdd5add,663e5723f022dcb18d241d3c,0,"{""Q0"":""color""}","In the sentence [this is a red table], 'red' belongs to a category that is organized by:",practice_category
663e58e08e1507bd70f619cb,6059,survey-multi-choice,29,188028,0,56c5c6489b720300057af888,663aca6426db79e41fdd5add,663e5723f022dcb18d241d3c,0,"{""Q0"":""shape""}",bucket,category_organization
663e58e08e1507bd70f619cd,5254,survey-multi-choice,30,193282,0,56c5c6489b720300057af888,663aca6426db79e41fdd5add,663e5723f022dcb18d241d3c,0,"{""Q0"":""none of these""}",turkey,category_organization
663e58e08e1507bd70f619cf,4895,survey-multi-choice,31,198178,0,56c5c6489b720300057af888,663aca6426db79e41fdd5add,663e5723f022dcb18d241d3c,0,"{""Q0"":""none of these""}",song,category_organization
663e58e08e1507bd70f619d1,5823,survey-multi-choice,32,204002,0,56c5c6489b720300057af888,663aca6426db79e41fdd5add,663e5723f022dcb18d241d3c,0,"{""Q0"":""color""}",green beans,category_organization
663e58e08e1507bd70f619d3,3287,survey-multi-choice,33,207289,0,56c5c6489b720300057af888,663aca6426db79e41fdd5add,663e5723f022dcb18d241d3c,0,"{""Q0"":""color""}",traffic light,category_organization
663e58e08e1507bd70f619d5,3938,survey-multi-choice,34,211228,0,56c5c6489b720300057af888,663aca6426db79e41fdd5add,663e5723f022dcb18d241d3c,0,"{""Q0"":""shape""}",taxi,category_organization
663e58e08e1507bd70f619d7,4303,survey-multi-choice,35,215532,0,56c5c6489b720300057af888,663aca6426db79e41fdd5add,663e5723f022dcb18d241d3c,0,"{""Q0"":""material""}",noodles,category_organization
663e58e08e1507bd70f619d9,4520,survey-multi-choice,36,220052,0,56c5c6489b720300057af888,663aca6426db79e41fdd5add,663e5723f022dcb18d241d3c,0,"{""Q0"":""shape""}",waist,category_organization
663e58e08e1507bd70f619db,6173,survey-multi-choice,37,226225,0,56c5c6489b720300057af888,663aca6426db79e41fdd5add,663e5723f022dcb18d241d3c,0,"{""Q0"":""none of these""}",thing,category_organization
663e58e08e1507bd70f619dd,4020,survey-multi-choice,38,230246,0,56c5c6489b720300057af888,663aca6426db79e41fdd5add,663e5723f022dcb18d241d3c,0,"{""Q0"":""material""}",glass,category_organization
663e58e08e1507bd70f619df,4542,survey-multi-choice,39,234788,0,56c5c6489b720300057af888,663aca6426db79e41fdd5add,663e5723f022dcb18d241d3c,0,"{""Q0"":""none of these""}",goose,category_organization
663e58e08e1507bd70f619e1,5464,survey-multi-choice,40,240252,0,56c5c6489b720300057af888,663aca6426db79e41fdd5add,663e5723f022dcb18d241d3c,0,"{""Q0"":""none of these""}",sprinkler,category_organization
663e58e08e1507bd70f619e3,5350,survey-multi-choice,41,245603,0,56c5c6489b720300057af888,663aca6426db79e41fdd5add,663e5723f022dcb18d241d3c,0,"{""Q0"":""shape""}",pineapple,category_organization
663e58e08e1507bd70f619e5,5206,survey-multi-choice,42,250810,0,56c5c6489b720300057af888,663aca6426db79e41fdd5add,663e5723f022dcb18d241d3c,0,"{""Q0"":""shape""}",robot,category_organization
663e58e08e1507bd70f619e7,3205,survey-multi-choice,43,254015,0,56c5c6489b720300057af888,663aca6426db79e41fdd5add,663e5723f022dcb18d241d3c,0,"{""Q0"":""material""}",spaghetti,category_organization
663e58e08e1507bd70f619e9,6050,survey-multi-choice,44,260070,0,56c5c6489b720300057af888,663aca6426db79e41fdd5add,663e5723f022dcb18d241d3c,0,"{""Q0"":""none of these""}",lawn mower,category_organization
663e58e08e1507bd70f619eb,3777,survey-multi-choice,45,263848,0,56c5c6489b720300057af888,663aca6426db79e41fdd5add,663e5723f022dcb18d241d3c,0,"{""Q0"":""none of these""}",tricycle,category_organization
663e58e08e1507bd70f619ed,3831,survey-multi-choice,46,267680,0,56c5c6489b720300057af888,663aca6426db79e41fdd5add,663e5723f022dcb18d241d3c,0,"{""Q0"":""material""}",sand,category_organization
663e58e08e1507bd70f619ef,5581,survey-multi-choice,47,273262,0,56c5c6489b720300057af888,663aca6426db79e41fdd5add,663e5723f022dcb18d241d3c,0,"{""Q0"":""shape""}",microwave,category_organization
663e58e18e1507bd70f619f1,4303,survey-multi-choice,48,277566,0,56c5c6489b720300057af888,663aca6426db79e41fdd5add,663e5723f022dcb18d241d3c,0,"{""Q0"":""none of these""}",sparrow,category_organization
663e58e18e1507bd70f619f3,14193,survey-multi-choice,49,291760,0,56c5c6489b720300057af888,663aca6426db79e41fdd5add,663e5723f022dcb18d241d3c,0,"{""Q0"":""shape""}",lavender,attention_category
663e58e18e1507bd70f619f5,5002,survey-multi-choice,52,343754,0,56c5c6489b720300057af888,663aca6426db79e41fdd5add,663e5723f022dcb18d241d3c,0,"{""Q0"":""mass noun""}"," In the sentence [This is so much sugar?], sugar is: ",practice_countmass
663e58e18e1507bd70f619f7,8160,survey-multi-choice,55,362943,0,56c5c6489b720300057af888,663aca6426db79e41fdd5add,663e5723f022dcb18d241d3c,0,"{""Q0"":""count noun""}",song,count_mass
663e58e18e1507bd70f619f9,3280,survey-multi-choice,56,366223,0,56c5c6489b720300057af888,663aca6426db79e41fdd5add,663e5723f022dcb18d241d3c,0,"{""Q0"":""mass noun""}",mountain,count_mass
663e58e18e1507bd70f619fb,6092,survey-multi-choice,53,351452,0,56c5c6489b720300057af888,663aca6426db79e41fdd5add,663e5723f022dcb18d241d3c,0,"{""Q0"":""mass noun""}",wall,count_mass
663e58e18e1507bd70f619fd,38394,html-button-response,50,330155,0,56c5c6489b720300057af888,663aca6426db79e41fdd5add,663e5723f022dcb18d241d3c,0,0,,
663e58e18e1507bd70f619ff,3329,survey-multi-choice,54,354782,0,56c5c6489b720300057af888,663aca6426db79e41fdd5add,663e5723f022dcb18d241d3c,0,"{""Q0"":""count noun""}",wheel,count_mass
663e58e18e1507bd70f61a01,6544,survey-multi-choice,51,336700,0,56c5c6489b720300057af888,663aca6426db79e41fdd5add,663e5723f022dcb18d241d3c,0,"{""Q0"":""count noun""}"," In the sentence [would you like a Chair?], a chair is:",practice_countmass
663e58e18e1507bd70f61a03,3104,survey-multi-choice,57,369328,0,56c5c6489b720300057af888,663aca6426db79e41fdd5add,663e5723f022dcb18d241d3c,0,"{""Q0"":""count noun""}",vegetable,count_mass
663e58e18e1507bd70f61a05,2853,survey-multi-choice,58,372181,0,56c5c6489b720300057af888,663aca6426db79e41fdd5add,663e5723f022dcb18d241d3c,0,"{""Q0"":""mass noun""}",soil,count_mass
663e58e28e1507bd70f61a07,2138,survey-multi-choice,59,374320,0,56c5c6489b720300057af888,663aca6426db79e41fdd5add,663e5723f022dcb18d241d3c,0,"{""Q0"":""count noun""}",tricycle,count_mass
663e58e28e1507bd70f61a09,2389,survey-multi-choice,60,376709,0,56c5c6489b720300057af888,663aca6426db79e41fdd5add,663e5723f022dcb18d241d3c,0,"{""Q0"":""count noun""}",trampoline,count_mass
663e58e28e1507bd70f61a0b,3644,survey-multi-choice,61,380354,0,56c5c6489b720300057af888,663aca6426db79e41fdd5add,663e5723f022dcb18d241d3c,0,"{""Q0"":""count noun""}",persimmon,count_mass
663e58e28e1507bd70f61a0d,3627,survey-multi-choice,62,383981,0,56c5c6489b720300057af888,663aca6426db79e41fdd5add,663e5723f022dcb18d241d3c,0,"{""Q0"":""count noun""}",hammer,count_mass
663e58e28e1507bd70f61a0f,2446,survey-multi-choice,63,386428,0,56c5c6489b720300057af888,663aca6426db79e41fdd5add,663e5723f022dcb18d241d3c,0,"{""Q0"":""count noun""}",can (object),count_mass
663e58e28e1507bd70f61a11,2781,survey-multi-choice,64,389210,0,56c5c6489b720300057af888,663aca6426db79e41fdd5add,663e5723f022dcb18d241d3c,0,"{""Q0"":""count noun""}",pudding,count_mass
663e58e28e1507bd70f61a13,2775,survey-multi-choice,65,391986,0,56c5c6489b720300057af888,663aca6426db79e41fdd5add,663e5723f022dcb18d241d3c,0,"{""Q0"":""count noun""}",dinosaur,count_mass
663e58e28e1507bd70f61a15,2555,survey-multi-choice,66,394542,0,56c5c6489b720300057af888,663aca6426db79e41fdd5add,663e5723f022dcb18d241d3c,0,"{""Q0"":""count noun""}",hot dog,count_mass
663e58e28e1507bd70f61a17,2389,survey-multi-choice,67,396931,0,56c5c6489b720300057af888,663aca6426db79e41fdd5add,663e5723f022dcb18d241d3c,0,"{""Q0"":""count noun""}",gorilla,count_mass
663e58e28e1507bd70f61a19,3591,survey-multi-choice,68,400523,0,56c5c6489b720300057af888,663aca6426db79e41fdd5add,663e5723f022dcb18d241d3c,0,"{""Q0"":""count noun""}",dress shoe,count_mass
663e58e28e1507bd70f61a1b,2584,survey-multi-choice,69,403108,0,56c5c6489b720300057af888,663aca6426db79e41fdd5add,663e5723f022dcb18d241d3c,0,"{""Q0"":""count noun""}",body,count_mass
663e58e28e1507bd70f61a1d,2931,survey-multi-choice,70,406040,0,56c5c6489b720300057af888,663aca6426db79e41fdd5add,663e5723f022dcb18d241d3c,0,"{""Q0"":""mass noun""}",glass,count_mass
663e58e28e1507bd70f61a1f,2399,survey-multi-choice,71,408440,0,56c5c6489b720300057af888,663aca6426db79e41fdd5add,663e5723f022dcb18d241d3c,0,"{""Q0"":""count noun""}",rice cake,count_mass
663e58e28e1507bd70f61a21,3169,survey-multi-choice,72,411610,0,56c5c6489b720300057af888,663aca6426db79e41fdd5add,663e5723f022dcb18d241d3c,0,"{""Q0"":""mass noun""}",salt,count_mass
663e58e28e1507bd70f61a23,5543,survey-multi-choice,73,417153,0,56c5c6489b720300057af888,663aca6426db79e41fdd5add,663e5723f022dcb18d241d3c,0,"{""Q0"":""count noun""}",grey,attention_countmass
663e58e28e1507bd70f61a25,12170,instructions,74,429325,0,56c5c6489b720300057af888,663aca6426db79e41fdd5add,663e5723f022dcb18d241d3c,0,,,
663e59158e1507bd70f61a27,6357,instructions,0,6359,0,5ded72900fdb2743e983e028,663aca6426db79e41fdd5add,663e57fb76034ff04f241c75,0,,,
663e59168e1507bd70f61a29,2366,instructions,1,8726,0,5ded72900fdb2743e983e028,663aca6426db79e41fdd5add,663e57fb76034ff04f241c75,0,,,
663e59168e1507bd70f61a2b,8935,html-button-response,2,17663,0,5ded72900fdb2743e983e028,663aca6426db79e41fdd5add,663e57fb76034ff04f241c75,0,0,,
663e59168e1507bd70f61a2d,4335,survey-multi-choice,3,21999,0,5ded72900fdb2743e983e028,663aca6426db79e41fdd5add,663e57fb76034ff04f241c75,0,"{""Q0"":""solid""}","In the sentence [this is a block of metal], a block of metal is:",practice_solidity
663e59168e1507bd70f61a2f,3151,survey-multi-choice,5,31543,0,5ded72900fdb2743e983e028,663aca6426db79e41fdd5add,663e57fb76034ff04f241c75,0,"{""Q0"":""solid""}",street,solidity
663e59168e1507bd70f61a31,2711,survey-multi-choice,4,26647,0,5ded72900fdb2743e983e028,663aca6426db79e41fdd5add,663e57fb76034ff04f241c75,0,"{""Q0"":""non-solid""}","In the sentence [this is a pile of sand], a pile of sand is:",practice_solidity
663e59168e1507bd70f61a33,2230,survey-multi-choice,6,33775,0,5ded72900fdb2743e983e028,663aca6426db79e41fdd5add,663e57fb76034ff04f241c75,0,"{""Q0"":""solid""}",swing (object),solidity
663e59168e1507bd70f61a35,1727,survey-multi-choice,7,35503,0,5ded72900fdb2743e983e028,663aca6426db79e41fdd5add,663e57fb76034ff04f241c75,0,"{""Q0"":""solid""}",corn,solidity
663e59168e1507bd70f61a37,1599,survey-multi-choice,8,37102,0,5ded72900fdb2743e983e028,663aca6426db79e41fdd5add,663e57fb76034ff04f241c75,0,"{""Q0"":""solid""}",peas,solidity
663e59168e1507bd70f61a39,1984,survey-multi-choice,9,39087,0,5ded72900fdb2743e983e028,663aca6426db79e41fdd5add,663e57fb76034ff04f241c75,0,"{""Q0"":""solid""}",basket,solidity
663e59168e1507bd70f61a3b,3623,survey-multi-choice,10,42710,0,5ded72900fdb2743e983e028,663aca6426db79e41fdd5add,663e57fb76034ff04f241c75,0,"{""Q0"":""solid""}",ice,solidity
663e59168e1507bd70f61a3d,1999,survey-multi-choice,11,44711,0,5ded72900fdb2743e983e028,663aca6426db79e41fdd5add,663e57fb76034ff04f241c75,0,"{""Q0"":""solid""}",owl,solidity
663e59168e1507bd70f61a3f,1919,survey-multi-choice,12,46631,0,5ded72900fdb2743e983e028,663aca6426db79e41fdd5add,663e57fb76034ff04f241c75,0,"{""Q0"":""solid""}",chicken (animal),solidity
663e59168e1507bd70f61a41,1791,survey-multi-choice,13,48423,0,5ded72900fdb2743e983e028,663aca6426db79e41fdd5add,663e57fb76034ff04f241c75,0,"{""Q0"":""solid""}",bird,solidity
663e59168e1507bd70f61a43,2415,survey-multi-choice,14,50839,0,5ded72900fdb2743e983e028,663aca6426db79e41fdd5add,663e57fb76034ff04f241c75,0,"{""Q0"":""solid""}",cheerios,solidity
663e59168e1507bd70f61a45,1975,survey-multi-choice,15,52815,0,5ded72900fdb2743e983e028,663aca6426db79e41fdd5add,663e57fb76034ff04f241c75,0,"{""Q0"":""solid""}",orange (food),solidity
663e59168e1507bd70f61a47,3031,survey-multi-choice,16,55846,0,5ded72900fdb2743e983e028,663aca6426db79e41fdd5add,663e57fb76034ff04f241c75,0,"{""Q0"":""solid""}",belt,solidity
663e59168e1507bd70f61a49,2703,survey-multi-choice,17,58551,0,5ded72900fdb2743e983e028,663aca6426db79e41fdd5add,663e57fb76034ff04f241c75,0,"{""Q0"":""solid""}",potato,solidity
663e59168e1507bd70f61a4b,1664,survey-multi-choice,18,60215,0,5ded72900fdb2743e983e028,663aca6426db79e41fdd5add,663e57fb76034ff04f241c75,0,"{""Q0"":""solid""}",pillow,solidity
663e59178e1507bd70f61a4d,1542,survey-multi-choice,19,61758,0,5ded72900fdb2743e983e028,663aca6426db79e41fdd5add,663e57fb76034ff04f241c75,0,"{""Q0"":""solid""}",popcorn,solidity
663e59178e1507bd70f61a4f,1800,survey-multi-choice,20,63559,0,5ded72900fdb2743e983e028,663aca6426db79e41fdd5add,663e57fb76034ff04f241c75,0,"{""Q0"":""solid""}",train,solidity
663e59178e1507bd70f61a51,1943,survey-multi-choice,21,65503,0,5ded72900fdb2743e983e028,663aca6426db79e41fdd5add,663e57fb76034ff04f241c75,0,"{""Q0"":""solid""}",face,solidity
663e59178e1507bd70f61a53,1711,survey-multi-choice,22,67215,0,5ded72900fdb2743e983e028,663aca6426db79e41fdd5add,663e57fb76034ff04f241c75,0,"{""Q0"":""solid""}",bread,solidity
663e59178e1507bd70f61a55,1959,survey-multi-choice,23,69174,0,5ded72900fdb2743e983e028,663aca6426db79e41fdd5add,663e57fb76034ff04f241c75,0,"{""Q0"":""solid""}",jacket,solidity
663e59178e1507bd70f61a57,1807,survey-multi-choice,24,70982,0,5ded72900fdb2743e983e028,663aca6426db79e41fdd5add,663e57fb76034ff04f241c75,0,"{""Q0"":""solid""}",chalk,solidity
663e59178e1507bd70f61a59,1888,survey-multi-choice,25,72871,0,5ded72900fdb2743e983e028,663aca6426db79e41fdd5add,663e57fb76034ff04f241c75,0,"{""Q0"":""solid""}",purple,attention_solidity
663e59178e1507bd70f61a5b,16966,html-button-response,26,89839,0,5ded72900fdb2743e983e028,663aca6426db79e41fdd5add,663e57fb76034ff04f241c75,0,0,,
663e59178e1507bd70f61a5d,3823,survey-multi-choice,27,93663,0,5ded72900fdb2743e983e028,663aca6426db79e41fdd5add,663e57fb76034ff04f241c75,0,"{""Q0"":""count noun""}"," In the sentence [would you like a Chair?], a chair is:",practice_countmass
663e59178e1507bd70f61a5f,3174,survey-multi-choice,28,98390,0,5ded72900fdb2743e983e028,663aca6426db79e41fdd5add,663e57fb76034ff04f241c75,0,"{""Q0"":""mass noun""}"," In the sentence [This is so much sugar?], sugar is: ",practice_countmass
663e59178e1507bd70f61a63,2319,survey-multi-choice,30,104391,0,5ded72900fdb2743e983e028,663aca6426db79e41fdd5add,663e57fb76034ff04f241c75,0,"{""Q0"":""count noun""}",foot,count_mass
663e59178e1507bd70f61a61,2279,survey-multi-choice,29,102071,0,5ded72900fdb2743e983e028,663aca6426db79e41fdd5add,663e57fb76034ff04f241c75,0,"{""Q0"":""count noun""}",story,count_mass
663e59178e1507bd70f61a65,1647,survey-multi-choice,31,106038,0,5ded72900fdb2743e983e028,663aca6426db79e41fdd5add,663e57fb76034ff04f241c75,0,"{""Q0"":""count noun""}",zipper,count_mass
663e59178e1507bd70f61a67,1632,survey-multi-choice,32,107671,0,5ded72900fdb2743e983e028,663aca6426db79e41fdd5add,663e57fb76034ff04f241c75,0,"{""Q0"":""count noun""}",blanket,count_mass
663e59178e1507bd70f61a69,2474,survey-multi-choice,33,110145,0,5ded72900fdb2743e983e028,663aca6426db79e41fdd5add,663e57fb76034ff04f241c75,0,"{""Q0"":""mass noun""}",ice,count_mass
663e59178e1507bd70f61a6b,2103,survey-multi-choice,35,114254,0,5ded72900fdb2743e983e028,663aca6426db79e41fdd5add,663e57fb76034ff04f241c75,0,"{""Q0"":""count noun""}",apple,count_mass
663e59178e1507bd70f61a6d,1641,survey-multi-choice,36,115895,0,5ded72900fdb2743e983e028,663aca6426db79e41fdd5add,663e57fb76034ff04f241c75,0,"{""Q0"":""count noun""}",balloon,count_mass
663e59178e1507bd70f61a6f,2005,survey-multi-choice,34,112151,0,5ded72900fdb2743e983e028,663aca6426db79e41fdd5add,663e57fb76034ff04f241c75,0,"{""Q0"":""count noun""}",toy (object),count_mass
663e59178e1507bd70f61a71,1535,survey-multi-choice,37,117431,0,5ded72900fdb2743e983e028,663aca6426db79e41fdd5add,663e57fb76034ff04f241c75,0,"{""Q0"":""count noun""}",window,count_mass
663e59178e1507bd70f61a73,1423,survey-multi-choice,38,118855,0,5ded72900fdb2743e983e028,663aca6426db79e41fdd5add,663e57fb76034ff04f241c75,0,"{""Q0"":""count noun""}",strawberry,count_mass
663e59178e1507bd70f61a75,2223,survey-multi-choice,39,121079,0,5ded72900fdb2743e983e028,663aca6426db79e41fdd5add,663e57fb76034ff04f241c75,0,"{""Q0"":""count noun""}",firetruck,count_mass
663e59178e1507bd70f61a77,1855,survey-multi-choice,40,122935,0,5ded72900fdb2743e983e028,663aca6426db79e41fdd5add,663e57fb76034ff04f241c75,0,"{""Q0"":""count noun""}",doll,count_mass
663e59178e1507bd70f61a79,2015,survey-multi-choice,41,124951,0,5ded72900fdb2743e983e028,663aca6426db79e41fdd5add,663e57fb76034ff04f241c75,0,"{""Q0"":""count noun""}",flower,count_mass
663e59178e1507bd70f61a7b,2056,survey-multi-choice,42,127008,0,5ded72900fdb2743e983e028,663aca6426db79e41fdd5add,663e57fb76034ff04f241c75,0,"{""Q0"":""count noun""}",towel,count_mass
663e59188e1507bd70f61a7d,1518,survey-multi-choice,43,128527,0,5ded72900fdb2743e983e028,663aca6426db79e41fdd5add,663e57fb76034ff04f241c75,0,"{""Q0"":""count noun""}",truck,count_mass
663e59188e1507bd70f61a7f,2688,survey-multi-choice,44,131216,0,5ded72900fdb2743e983e028,663aca6426db79e41fdd5add,663e57fb76034ff04f241c75,0,"{""Q0"":""mass noun""}",peanut butter,count_mass
663e59188e1507bd70f61a81,3759,survey-multi-choice,45,134975,0,5ded72900fdb2743e983e028,663aca6426db79e41fdd5add,663e57fb76034ff04f241c75,0,"{""Q0"":""count noun""}",cloud,count_mass
663e59188e1507bd70f61a83,2623,survey-multi-choice,46,137599,0,5ded72900fdb2743e983e028,663aca6426db79e41fdd5add,663e57fb76034ff04f241c75,0,"{""Q0"":""mass noun""}",soup,count_mass
663e59188e1507bd70f61a85,2983,survey-multi-choice,47,140583,0,5ded72900fdb2743e983e028,663aca6426db79e41fdd5add,663e57fb76034ff04f241c75,0,"{""Q0"":""count noun""}",button,count_mass
663e59188e1507bd70f61a87,1927,survey-multi-choice,48,142511,0,5ded72900fdb2743e983e028,663aca6426db79e41fdd5add,663e57fb76034ff04f241c75,0,"{""Q0"":""count noun""}",squirrel,count_mass
663e59188e1507bd70f61a89,2167,survey-multi-choice,49,144679,0,5ded72900fdb2743e983e028,663aca6426db79e41fdd5add,663e57fb76034ff04f241c75,0,"{""Q0"":""count noun""}",grey,attention_countmass
663e59188e1507bd70f61a8b,22839,html-button-response,50,167519,0,5ded72900fdb2743e983e028,663aca6426db79e41fdd5add,663e57fb76034ff04f241c75,0,0,,
663e59188e1507bd70f61a8d,8535,survey-multi-choice,51,176055,0,5ded72900fdb2743e983e028,663aca6426db79e41fdd5add,663e57fb76034ff04f241c75,0,"{""Q0"":""shape""}","In the sentence [this is a square table], a 'square' belongs to a category that is organized by:",practice_category
663e59188e1507bd70f61a8f,3823,survey-multi-choice,52,181166,0,5ded72900fdb2743e983e028,663aca6426db79e41fdd5add,663e57fb76034ff04f241c75,0,"{""Q0"":""color""}","In the sentence [this is a red table], 'red' belongs to a category that is organized by:",practice_category
663e59188e1507bd70f61a91,6815,survey-multi-choice,54,199351,0,5ded72900fdb2743e983e028,663aca6426db79e41fdd5add,663e57fb76034ff04f241c75,0,"{""Q0"":""shape""}",carrot,category_organization
663e59188e1507bd70f61a93,9911,survey-multi-choice,53,192535,0,5ded72900fdb2743e983e028,663aca6426db79e41fdd5add,663e57fb76034ff04f241c75,0,"{""Q0"":""shape""}",fish (food),category_organization
663e59188e1507bd70f61a95,2999,survey-multi-choice,55,202351,0,5ded72900fdb2743e983e028,663aca6426db79e41fdd5add,663e57fb76034ff04f241c75,0,"{""Q0"":""shape""}",head,category_organization
663e59188e1507bd70f61a97,2535,survey-multi-choice,56,204887,0,5ded72900fdb2743e983e028,663aca6426db79e41fdd5add,663e57fb76034ff04f241c75,0,"{""Q0"":""shape""}",train,category_organization
663e59188e1507bd70f61a99,4647,survey-multi-choice,57,209535,0,5ded72900fdb2743e983e028,663aca6426db79e41fdd5add,663e57fb76034ff04f241c75,0,"{""Q0"":""shape""}",cup,category_organization
663e59188e1507bd70f61a9b,4015,survey-multi-choice,59,215703,0,5ded72900fdb2743e983e028,663aca6426db79e41fdd5add,663e57fb76034ff04f241c75,0,"{""Q0"":""material""}",coffee,category_organization
663e59188e1507bd70f61a9d,2152,survey-multi-choice,58,211687,0,5ded72900fdb2743e983e028,663aca6426db79e41fdd5add,663e57fb76034ff04f241c75,0,"{""Q0"":""shape""}",tree,category_organization
663e59188e1507bd70f61a9f,3199,survey-multi-choice,60,218902,0,5ded72900fdb2743e983e028,663aca6426db79e41fdd5add,663e57fb76034ff04f241c75,0,"{""Q0"":""shape""}",foot,category_organization
663e59188e1507bd70f61aa1,3655,survey-multi-choice,61,222559,0,5ded72900fdb2743e983e028,663aca6426db79e41fdd5add,663e57fb76034ff04f241c75,0,"{""Q0"":""material""}",pizza,category_organization
663e59188e1507bd70f61aa3,2143,survey-multi-choice,63,232031,0,5ded72900fdb2743e983e028,663aca6426db79e41fdd5add,663e57fb76034ff04f241c75,0,"{""Q0"":""shape""}",strawberry,category_organization
663e59188e1507bd70f61aa5,7328,survey-multi-choice,62,229887,0,5ded72900fdb2743e983e028,663aca6426db79e41fdd5add,663e57fb76034ff04f241c75,0,"{""Q0"":""shape""}",tummy,category_organization
663e59188e1507bd70f61aa7,2167,survey-multi-choice,64,234199,0,5ded72900fdb2743e983e028,663aca6426db79e41fdd5add,663e57fb76034ff04f241c75,0,"{""Q0"":""shape""}",hat,category_organization
663e59188e1507bd70f61aa9,1710,survey-multi-choice,65,235911,0,5ded72900fdb2743e983e028,663aca6426db79e41fdd5add,663e57fb76034ff04f241c75,0,"{""Q0"":""shape""}",pretzel,category_organization
663e59188e1507bd70f61aab,3736,survey-multi-choice,66,239647,0,5ded72900fdb2743e983e028,663aca6426db79e41fdd5add,663e57fb76034ff04f241c75,0,"{""Q0"":""shape""}",stairs,category_organization
663e59188e1507bd70f61aad,2807,survey-multi-choice,67,242454,0,5ded72900fdb2743e983e028,663aca6426db79e41fdd5add,663e57fb76034ff04f241c75,0,"{""Q0"":""material""}",milk,category_organization
663e59198e1507bd70f61aaf,2687,survey-multi-choice,69,248246,0,5ded72900fdb2743e983e028,663aca6426db79e41fdd5add,663e57fb76034ff04f241c75,0,"{""Q0"":""shape""}",eye,category_organization
663e59198e1507bd70f61ab1,3103,survey-multi-choice,68,245558,0,5ded72900fdb2743e983e028,663aca6426db79e41fdd5add,663e57fb76034ff04f241c75,0,"{""Q0"":""shape""}",belt,category_organization
663e59198e1507bd70f61ab3,5248,survey-multi-choice,70,253495,0,5ded72900fdb2743e983e028,663aca6426db79e41fdd5add,663e57fb76034ff04f241c75,0,"{""Q0"":""material""}",food,category_organization
663e59198e1507bd70f61ab5,2639,survey-multi-choice,71,256134,0,5ded72900fdb2743e983e028,663aca6426db79e41fdd5add,663e57fb76034ff04f241c75,0,"{""Q0"":""material""}",paper,category_organization
663e59198e1507bd70f61ab7,2920,survey-multi-choice,72,259055,0,5ded72900fdb2743e983e028,663aca6426db79e41fdd5add,663e57fb76034ff04f241c75,0,"{""Q0"":""shape""}",sink,category_organization
663e59198e1507bd70f61ab9,11615,survey-multi-choice,73,270670,0,5ded72900fdb2743e983e028,663aca6426db79e41fdd5add,663e57fb76034ff04f241c75,0,"{""Q0"":""color""}",lavender,attention_category
663e59198e1507bd70f61abb,1959,instructions,74,272630,0,5ded72900fdb2743e983e028,663aca6426db79e41fdd5add,663e57fb76034ff04f241c75,0,,,
663e59398e1507bd70f61abd,9634,instructions,0,9635,0,5ddd5bb741fb3fcc3bd3b76d,663aca6426db79e41fdd5add,663e574a6ce007fd32093cc0,0,,,
663e59398e1507bd70f61abf,3935,instructions,1,13570,0,5ddd5bb741fb3fcc3bd3b76d,663aca6426db79e41fdd5add,663e574a6ce007fd32093cc0,0,,,
663e59398e1507bd70f61ac1,37903,html-button-response,2,51489,0,5ddd5bb741fb3fcc3bd3b76d,663aca6426db79e41fdd5add,663e574a6ce007fd32093cc0,0,0,,
663e59398e1507bd70f61ac3,8191,survey-multi-choice,3,59681,0,5ddd5bb741fb3fcc3bd3b76d,663aca6426db79e41fdd5add,663e574a6ce007fd32093cc0,0,"{""Q0"":""solid""}","In the sentence [this is a block of metal], a block of metal is:",practice_solidity
663e59398e1507bd70f61ac5,5936,survey-multi-choice,4,68833,0,5ddd5bb741fb3fcc3bd3b76d,663aca6426db79e41fdd5add,663e574a6ce007fd32093cc0,0,"{""Q0"":""solid""}","In the sentence [this is a pile of sand], a pile of sand is:",practice_solidity
663e59398e1507bd70f61ac7,5663,survey-multi-choice,5,78361,0,5ddd5bb741fb3fcc3bd3b76d,663aca6426db79e41fdd5add,663e574a6ce007fd32093cc0,0,"{""Q0"":""solid""}",skirt,solidity
663e59398e1507bd70f61ac9,4286,survey-multi-choice,6,82649,0,5ddd5bb741fb3fcc3bd3b76d,663aca6426db79e41fdd5add,663e574a6ce007fd32093cc0,0,"{""Q0"":""solid""}",penny,solidity
663e59398e1507bd70f61acb,7583,survey-multi-choice,7,90233,0,5ddd5bb741fb3fcc3bd3b76d,663aca6426db79e41fdd5add,663e574a6ce007fd32093cc0,0,"{""Q0"":""non-solid""}",jelly,solidity
663e59398e1507bd70f61acd,3367,survey-multi-choice,8,93601,0,5ddd5bb741fb3fcc3bd3b76d,663aca6426db79e41fdd5add,663e574a6ce007fd32093cc0,0,"{""Q0"":""solid""}",house,solidity
