_id,rt,trial_type,trial_index,time_elapsed,internal_node_id,subject,study_id,session_id,__v,response,theword,block
67ce5af9aac2aea29b286776,41798,instructions,0,41800,0,5c8c22bafeeaeb0016207a00,67ce4cdac9e27ae798d3f54f,67ce5a4a3ac49c813b40070f,0,,,
67ce5af9aac2aea29b286778,2974,instructions,1,44775,0,5c8c22bafeeaeb0016207a00,67ce4cdac9e27ae798d3f54f,67ce5a4a3ac49c813b40070f,0,,,
67ce5af9aac2aea29b28677a,22975,html-button-response,2,67753,0,5c8c22bafeeaeb0016207a00,67ce4cdac9e27ae798d3f54f,67ce5a4a3ac49c813b40070f,0,0,,
67ce5af9aac2aea29b28677c,1704,html-button-response,3,69458,0,5c8c22bafeeaeb0016207a00,67ce4cdac9e27ae798d3f54f,67ce5a4a3ac49c813b40070f,0,0,,
67ce5af9aac2aea29b28677e,5598,survey-multi-choice,4,75058,0,5c8c22bafeeaeb0016207a00,67ce4cdac9e27ae798d3f54f,67ce5a4a3ac49c813b40070f,0,"{""Q0"":""shape""}",square,practice_category
67ce5af9aac2aea29b286780,853,html-button-response,5,75912,0,5c8c22bafeeaeb0016207a00,67ce4cdac9e27ae798d3f54f,67ce5a4a3ac49c813b40070f,0,0,,
67ce5af9aac2aea29b286782,3719,survey-multi-choice,6,79633,0,5c8c22bafeeaeb0016207a00,67ce4cdac9e27ae798d3f54f,67ce5a4a3ac49c813b40070f,0,"{""Q0"":""color""}",red,practice_category
67ce5af9aac2aea29b286784,775,html-button-response,7,80410,0,5c8c22bafeeaeb0016207a00,67ce4cdac9e27ae798d3f54f,67ce5a4a3ac49c813b40070f,0,0,,
67ce5af9aac2aea29b286786,938,html-button-response,9,84406,0,5c8c22bafeeaeb0016207a00,67ce4cdac9e27ae798d3f54f,67ce5a4a3ac49c813b40070f,0,0,,
67ce5af9aac2aea29b286788,3055,survey-multi-choice,8,83466,0,5c8c22bafeeaeb0016207a00,67ce4cdac9e27ae798d3f54f,67ce5a4a3ac49c813b40070f,0,"{""Q0"":""material""}",wooden,practice_category
67ce5af9aac2aea29b28678a,1365,html-button-response,10,85773,0,5c8c22bafeeaeb0016207a00,67ce4cdac9e27ae798d3f54f,67ce5a4a3ac49c813b40070f,0,0,,
67ce5af9aac2aea29b28678c,4871,survey-multi-choice,11,90645,0,5c8c22bafeeaeb0016207a00,67ce4cdac9e27ae798d3f54f,67ce5a4a3ac49c813b40070f,0,"{""Q0"":""shape""}",water (beverage),category_organization
67ce5af9aac2aea29b28678e,9571,survey-multi-choice,12,100218,0,5c8c22bafeeaeb0016207a00,67ce4cdac9e27ae798d3f54f,67ce5a4a3ac49c813b40070f,0,"{""Q0"":""color""}",dress (object),category_organization
67ce5af9aac2aea29b286790,3137,survey-multi-choice,13,103356,0,5c8c22bafeeaeb0016207a00,67ce4cdac9e27ae798d3f54f,67ce5a4a3ac49c813b40070f,0,"{""Q0"":""material""}",sandwich,category_organization
67ce5af9aac2aea29b286792,2492,survey-multi-choice,14,105850,0,5c8c22bafeeaeb0016207a00,67ce4cdac9e27ae798d3f54f,67ce5a4a3ac49c813b40070f,0,"{""Q0"":""material""}",hamburger,category_organization
67ce5af9aac2aea29b286794,2128,survey-multi-choice,15,107980,0,5c8c22bafeeaeb0016207a00,67ce4cdac9e27ae798d3f54f,67ce5a4a3ac49c813b40070f,0,"{""Q0"":""color""}",flag,category_organization
67ce5af9aac2aea29b286796,4395,survey-multi-choice,16,112377,0,5c8c22bafeeaeb0016207a00,67ce4cdac9e27ae798d3f54f,67ce5a4a3ac49c813b40070f,0,"{""Q0"":""material""}",wall,category_organization
67ce5af9aac2aea29b286798,7618,survey-multi-choice,17,119996,0,5c8c22bafeeaeb0016207a00,67ce4cdac9e27ae798d3f54f,67ce5a4a3ac49c813b40070f,0,"{""Q0"":""shape""}",telephone,category_organization
67ce5af9aac2aea29b28679a,4828,survey-multi-choice,18,124827,0,5c8c22bafeeaeb0016207a00,67ce4cdac9e27ae798d3f54f,67ce5a4a3ac49c813b40070f,0,"{""Q0"":""shape""}",orange juice,category_organization
67ce5af9aac2aea29b28679c,2846,survey-multi-choice,19,127675,0,5c8c22bafeeaeb0016207a00,67ce4cdac9e27ae798d3f54f,67ce5a4a3ac49c813b40070f,0,"{""Q0"":""shape""}",key,category_organization
67ce5af9aac2aea29b28679e,3076,survey-multi-choice,20,130752,0,5c8c22bafeeaeb0016207a00,67ce4cdac9e27ae798d3f54f,67ce5a4a3ac49c813b40070f,0,"{""Q0"":""material""}",vacuum,category_organization
67ce5af9aac2aea29b2867a0,2325,survey-multi-choice,21,133078,0,5c8c22bafeeaeb0016207a00,67ce4cdac9e27ae798d3f54f,67ce5a4a3ac49c813b40070f,0,"{""Q0"":""shape""}",spaghetti,category_organization
67ce5af9aac2aea29b2867a2,2766,survey-multi-choice,23,139689,0,5c8c22bafeeaeb0016207a00,67ce4cdac9e27ae798d3f54f,67ce5a4a3ac49c813b40070f,0,"{""Q0"":""shape""}",mirror,category_organization
67ce5af9aac2aea29b2867a4,3841,survey-multi-choice,22,136921,0,5c8c22bafeeaeb0016207a00,67ce4cdac9e27ae798d3f54f,67ce5a4a3ac49c813b40070f,0,"{""Q0"":""shape""}",fish (animal),category_organization
67ce5af9aac2aea29b2867a6,2660,survey-multi-choice,24,142350,0,5c8c22bafeeaeb0016207a00,67ce4cdac9e27ae798d3f54f,67ce5a4a3ac49c813b40070f,0,"{""Q0"":""shape""}",gun,category_organization
67ce5af9aac2aea29b2867a8,1913,survey-multi-choice,25,144265,0,5c8c22bafeeaeb0016207a00,67ce4cdac9e27ae798d3f54f,67ce5a4a3ac49c813b40070f,0,"{""Q0"":""color""}",car,category_organization
67ce5af9aac2aea29b2867aa,3404,survey-multi-choice,26,147671,0,5c8c22bafeeaeb0016207a00,67ce4cdac9e27ae798d3f54f,67ce5a4a3ac49c813b40070f,0,"{""Q0"":""shape""}",mosquito,category_organization
67ce5af9aac2aea29b2867ac,4336,survey-multi-choice,27,152008,0,5c8c22bafeeaeb0016207a00,67ce4cdac9e27ae798d3f54f,67ce5a4a3ac49c813b40070f,0,"{""Q0"":""material""}",stroller,category_organization
67ce5af9aac2aea29b2867ae,3748,survey-multi-choice,28,155757,0,5c8c22bafeeaeb0016207a00,67ce4cdac9e27ae798d3f54f,67ce5a4a3ac49c813b40070f,0,"{""Q0"":""shape""}",chicken (food),category_organization
67ce5af9aac2aea29b2867b0,5563,survey-multi-choice,30,163735,0,5c8c22bafeeaeb0016207a00,67ce4cdac9e27ae798d3f54f,67ce5a4a3ac49c813b40070f,0,"{""Q0"":""material""}",hammer,category_organization
67ce5af9aac2aea29b2867b2,2411,survey-multi-choice,29,158170,0,5c8c22bafeeaeb0016207a00,67ce4cdac9e27ae798d3f54f,67ce5a4a3ac49c813b40070f,0,"{""Q0"":""material""}",croquette,category_organization
67ce5afaaac2aea29b2867b4,1821,survey-multi-choice,31,165557,0,5c8c22bafeeaeb0016207a00,67ce4cdac9e27ae798d3f54f,67ce5a4a3ac49c813b40070f,0,"{""Q0"":""color""}",lavender,attention_category
67ce5afaaac2aea29b2867b6,2796,html-button-response,32,168355,0,5c8c22bafeeaeb0016207a00,67ce4cdac9e27ae798d3f54f,67ce5a4a3ac49c813b40070f,0,0,,
67ce5bdcaac2aea29b2867b8,3235,instructions,0,3236,0,67c31f640f4ed19c7e582f44,67ce4cdac9e27ae798d3f54f,67ce5afed4e5a77ec6f93f30,0,,,
67ce5bdcaac2aea29b2867ba,3607,instructions,1,6843,0,67c31f640f4ed19c7e582f44,67ce4cdac9e27ae798d3f54f,67ce5afed4e5a77ec6f93f30,0,,,
67ce5bdcaac2aea29b2867bc,26391,html-button-response,2,33235,0,67c31f640f4ed19c7e582f44,67ce4cdac9e27ae798d3f54f,67ce5afed4e5a77ec6f93f30,0,0,,
67ce5bdcaac2aea29b2867be,2695,html-button-response,3,35931,0,67c31f640f4ed19c7e582f44,67ce4cdac9e27ae798d3f54f,67ce5afed4e5a77ec6f93f30,0,0,,
67ce5bdcaac2aea29b2867c0,6007,survey-multi-choice,4,41939,0,67c31f640f4ed19c7e582f44,67ce4cdac9e27ae798d3f54f,67ce5afed4e5a77ec6f93f30,0,"{""Q0"":""shape""}",square,practice_category
67ce5bdcaac2aea29b2867c2,1199,html-button-response,5,43139,0,67c31f640f4ed19c7e582f44,67ce4cdac9e27ae798d3f54f,67ce5afed4e5a77ec6f93f30,0,0,,
67ce5bdcaac2aea29b2867c4,6472,survey-multi-choice,6,49612,0,67c31f640f4ed19c7e582f44,67ce4cdac9e27ae798d3f54f,67ce5afed4e5a77ec6f93f30,0,"{""Q0"":""color""}",red,practice_category
67ce5bdcaac2aea29b2867c6,999,html-button-response,7,50611,0,67c31f640f4ed19c7e582f44,67ce4cdac9e27ae798d3f54f,67ce5afed4e5a77ec6f93f30,0,0,,
67ce5bdcaac2aea29b2867c8,3808,survey-multi-choice,8,54419,0,67c31f640f4ed19c7e582f44,67ce4cdac9e27ae798d3f54f,67ce5afed4e5a77ec6f93f30,0,"{""Q0"":""material""}",wooden,practice_category
67ce5bdcaac2aea29b2867ca,896,html-button-response,9,55315,0,67c31f640f4ed19c7e582f44,67ce4cdac9e27ae798d3f54f,67ce5afed4e5a77ec6f93f30,0,0,,
67ce5bdcaac2aea29b2867cc,1576,html-button-response,10,56891,0,67c31f640f4ed19c7e582f44,67ce4cdac9e27ae798d3f54f,67ce5afed4e5a77ec6f93f30,0,0,,
67ce5bdcaac2aea29b2867ce,15920,survey-multi-choice,11,72811,0,67c31f640f4ed19c7e582f44,67ce4cdac9e27ae798d3f54f,67ce5afed4e5a77ec6f93f30,0,"{""Q0"":""shape""}",pasta,category_organization
67ce5bdcaac2aea29b2867d0,5264,survey-multi-choice,12,78075,0,67c31f640f4ed19c7e582f44,67ce4cdac9e27ae798d3f54f,67ce5afed4e5a77ec6f93f30,0,"{""Q0"":""material""}",chicken (food),category_organization
67ce5bdcaac2aea29b2867d2,5751,survey-multi-choice,13,83827,0,67c31f640f4ed19c7e582f44,67ce4cdac9e27ae798d3f54f,67ce5afed4e5a77ec6f93f30,0,"{""Q0"":""none of these""}",snake,category_organization
67ce5bddaac2aea29b2867d4,5864,survey-multi-choice,14,89691,0,67c31f640f4ed19c7e582f44,67ce4cdac9e27ae798d3f54f,67ce5afed4e5a77ec6f93f30,0,"{""Q0"":""none of these""}",ice cream,category_organization
67ce5bddaac2aea29b2867d6,5256,survey-multi-choice,15,94947,0,67c31f640f4ed19c7e582f44,67ce4cdac9e27ae798d3f54f,67ce5afed4e5a77ec6f93f30,0,"{""Q0"":""material""}",dust,category_organization
67ce5bddaac2aea29b2867d8,8903,survey-multi-choice,16,103851,0,67c31f640f4ed19c7e582f44,67ce4cdac9e27ae798d3f54f,67ce5afed4e5a77ec6f93f30,0,"{""Q0"":""none of these""}",stroller,category_organization
67ce5bddaac2aea29b2867da,22863,survey-multi-choice,17,126715,0,67c31f640f4ed19c7e582f44,67ce4cdac9e27ae798d3f54f,67ce5afed4e5a77ec6f93f30,0,"{""Q0"":""color""}",hair,category_organization
67ce5bddaac2aea29b2867dc,11448,survey-multi-choice,18,138163,0,67c31f640f4ed19c7e582f44,67ce4cdac9e27ae798d3f54f,67ce5afed4e5a77ec6f93f30,0,"{""Q0"":""none of these""}",money,category_organization
67ce5bddaac2aea29b2867de,11776,survey-multi-choice,19,149939,0,67c31f640f4ed19c7e582f44,67ce4cdac9e27ae798d3f54f,67ce5afed4e5a77ec6f93f30,0,"{""Q0"":""none of these""}",tomato,category_organization
67ce5bddaac2aea29b2867e0,9311,survey-multi-choice,20,159251,0,67c31f640f4ed19c7e582f44,67ce4cdac9e27ae798d3f54f,67ce5afed4e5a77ec6f93f30,0,"{""Q0"":""none of these""}",plant,category_organization
67ce5bddaac2aea29b2867e2,4040,survey-multi-choice,21,163291,0,67c31f640f4ed19c7e582f44,67ce4cdac9e27ae798d3f54f,67ce5afed4e5a77ec6f93f30,0,"{""Q0"":""none of these""}",lion,category_organization
67ce5bddaac2aea29b2867e4,4263,survey-multi-choice,22,167555,0,67c31f640f4ed19c7e582f44,67ce4cdac9e27ae798d3f54f,67ce5afed4e5a77ec6f93f30,0,"{""Q0"":""shape""}",star,category_organization
67ce5bddaac2aea29b2867e6,4831,survey-multi-choice,23,172387,0,67c31f640f4ed19c7e582f44,67ce4cdac9e27ae798d3f54f,67ce5afed4e5a77ec6f93f30,0,"{""Q0"":""none of these""}",onion,category_organization
67ce5bddaac2aea29b2867e8,6879,survey-multi-choice,24,179267,0,67c31f640f4ed19c7e582f44,67ce4cdac9e27ae798d3f54f,67ce5afed4e5a77ec6f93f30,0,"{""Q0"":""none of these""}",sauce,category_organization
67ce5bddaac2aea29b2867ea,6024,survey-multi-choice,25,185291,0,67c31f640f4ed19c7e582f44,67ce4cdac9e27ae798d3f54f,67ce5afed4e5a77ec6f93f30,0,"{""Q0"":""none of these""}",coat,category_organization
67ce5bddaac2aea29b2867ec,3295,survey-multi-choice,26,188586,0,67c31f640f4ed19c7e582f44,67ce4cdac9e27ae798d3f54f,67ce5afed4e5a77ec6f93f30,0,"{""Q0"":""none of these""}",chocolate,category_organization
67ce5bddaac2aea29b2867ee,8665,survey-multi-choice,27,197251,0,67c31f640f4ed19c7e582f44,67ce4cdac9e27ae798d3f54f,67ce5afed4e5a77ec6f93f30,0,"{""Q0"":""none of these""}",coffee,category_organization
67ce5bddaac2aea29b2867f0,9295,survey-multi-choice,28,206547,0,67c31f640f4ed19c7e582f44,67ce4cdac9e27ae798d3f54f,67ce5afed4e5a77ec6f93f30,0,"{""Q0"":""color""}",tooth,category_organization
67ce5bddaac2aea29b2867f2,2239,survey-multi-choice,29,208787,0,67c31f640f4ed19c7e582f44,67ce4cdac9e27ae798d3f54f,67ce5afed4e5a77ec6f93f30,0,"{""Q0"":""none of these""}",game,category_organization
67ce5bddaac2aea29b2867f4,2424,survey-multi-choice,30,211211,0,67c31f640f4ed19c7e582f44,67ce4cdac9e27ae798d3f54f,67ce5afed4e5a77ec6f93f30,0,"{""Q0"":""none of these""}",game,category_organization
67ce5bddaac2aea29b2867f6,3072,survey-multi-choice,31,214283,0,67c31f640f4ed19c7e582f44,67ce4cdac9e27ae798d3f54f,67ce5afed4e5a77ec6f93f30,0,"{""Q0"":""color""}",lavender,attention_category
67ce5bddaac2aea29b2867f8,2463,html-button-response,32,216747,0,67c31f640f4ed19c7e582f44,67ce4cdac9e27ae798d3f54f,67ce5afed4e5a77ec6f93f30,0,0,,
67ce5befaac2aea29b2867fa,6918,instructions,0,6920,0,672c57a8ee24c76a011bf4d7,67ce4cdac9e27ae798d3f54f,67ce5aebe209466b5a870507,0,,,
67ce5befaac2aea29b2867fc,4335,survey-multi-choice,6,61154,0,672c57a8ee24c76a011bf4d7,67ce4cdac9e27ae798d3f54f,67ce5aebe209466b5a870507,0,"{""Q0"":""color""}",red,practice_category
67ce5befaac2aea29b2867fe,3884,html-button-response,3,48021,0,672c57a8ee24c76a011bf4d7,67ce4cdac9e27ae798d3f54f,67ce5aebe209466b5a870507,0,0,,
67ce5befaac2aea29b286800,33217,html-button-response,2,44136,0,672c57a8ee24c76a011bf4d7,67ce4cdac9e27ae798d3f54f,67ce5aebe209466b5a870507,0,0,,
67ce5befaac2aea29b286802,7065,survey-multi-choice,4,55087,0,672c57a8ee24c76a011bf4d7,67ce4cdac9e27ae798d3f54f,67ce5aebe209466b5a870507,0,"{""Q0"":""shape""}",square,practice_category
67ce5befaac2aea29b286804,3997,instructions,1,10917,0,672c57a8ee24c76a011bf4d7,67ce4cdac9e27ae798d3f54f,67ce5aebe209466b5a870507,0,,,
67ce5befaac2aea29b286806,1730,html-button-response,5,56818,0,672c57a8ee24c76a011bf4d7,67ce4cdac9e27ae798d3f54f,67ce5aebe209466b5a870507,0,0,,
67ce5befaac2aea29b286808,1657,html-button-response,7,62811,0,672c57a8ee24c76a011bf4d7,67ce4cdac9e27ae798d3f54f,67ce5aebe209466b5a870507,0,0,,
67ce5befaac2aea29b28680a,1584,html-button-response,9,69223,0,672c57a8ee24c76a011bf4d7,67ce4cdac9e27ae798d3f54f,67ce5aebe209466b5a870507,0,0,,
67ce5befaac2aea29b28680c,4825,survey-multi-choice,8,67637,0,672c57a8ee24c76a011bf4d7,67ce4cdac9e27ae798d3f54f,67ce5aebe209466b5a870507,0,"{""Q0"":""material""}",wooden,practice_category
67ce5befaac2aea29b28680e,2361,html-button-response,10,71586,0,672c57a8ee24c76a011bf4d7,67ce4cdac9e27ae798d3f54f,67ce5aebe209466b5a870507,0,0,,
67ce5befaac2aea29b286810,5617,survey-multi-choice,11,77204,0,672c57a8ee24c76a011bf4d7,67ce4cdac9e27ae798d3f54f,67ce5aebe209466b5a870507,0,"{""Q0"":""shape""}",plate,category_organization
67ce5befaac2aea29b286812,5677,survey-multi-choice,12,82882,0,672c57a8ee24c76a011bf4d7,67ce4cdac9e27ae798d3f54f,67ce5aebe209466b5a870507,0,"{""Q0"":""none of these""}",giraffe,category_organization
67ce5befaac2aea29b286814,4365,survey-multi-choice,13,87247,0,672c57a8ee24c76a011bf4d7,67ce4cdac9e27ae798d3f54f,67ce5aebe209466b5a870507,0,"{""Q0"":""none of these""}",bear,category_organization
67ce5befaac2aea29b286816,1867,survey-multi-choice,14,89114,0,672c57a8ee24c76a011bf4d7,67ce4cdac9e27ae798d3f54f,67ce5aebe209466b5a870507,0,"{""Q0"":""none of these""}",wolf,category_organization
67ce5befaac2aea29b286818,3008,survey-multi-choice,15,92123,0,672c57a8ee24c76a011bf4d7,67ce4cdac9e27ae798d3f54f,67ce5aebe209466b5a870507,0,"{""Q0"":""material""}",yogurt,category_organization
67ce5befaac2aea29b28681a,4544,survey-multi-choice,16,96668,0,672c57a8ee24c76a011bf4d7,67ce4cdac9e27ae798d3f54f,67ce5aebe209466b5a870507,0,"{""Q0"":""none of these""}",drawer,category_organization
67ce5befaac2aea29b28681c,12097,survey-multi-choice,17,108765,0,672c57a8ee24c76a011bf4d7,67ce4cdac9e27ae798d3f54f,67ce5aebe209466b5a870507,0,"{""Q0"":""color""}",peach,category_organization
67ce5befaac2aea29b28681e,3652,survey-multi-choice,18,112418,0,672c57a8ee24c76a011bf4d7,67ce4cdac9e27ae798d3f54f,67ce5aebe209466b5a870507,0,"{""Q0"":""shape""}",lip,category_organization
67ce5befaac2aea29b286820,3495,survey-multi-choice,19,115913,0,672c57a8ee24c76a011bf4d7,67ce4cdac9e27ae798d3f54f,67ce5aebe209466b5a870507,0,"{""Q0"":""material""}",ham,category_organization
67ce5befaac2aea29b286822,16868,survey-multi-choice,20,132781,0,672c57a8ee24c76a011bf4d7,67ce4cdac9e27ae798d3f54f,67ce5aebe209466b5a870507,0,"{""Q0"":""material""}",mirror,category_organization
67ce5befaac2aea29b286824,8635,survey-multi-choice,23,152711,0,672c57a8ee24c76a011bf4d7,67ce4cdac9e27ae798d3f54f,67ce5aebe209466b5a870507,0,"{""Q0"":""none of these""}",shower,category_organization
67ce5befaac2aea29b286826,3689,survey-multi-choice,21,136471,0,672c57a8ee24c76a011bf4d7,67ce4cdac9e27ae798d3f54f,67ce5aebe209466b5a870507,0,"{""Q0"":""material""}",glass,category_organization
67ce5befaac2aea29b286828,7604,survey-multi-choice,22,144075,0,672c57a8ee24c76a011bf4d7,67ce4cdac9e27ae798d3f54f,67ce5aebe209466b5a870507,0,"{""Q0"":""shape""}",cot,category_organization
67ce5befaac2aea29b28682a,4200,survey-multi-choice,24,156911,0,672c57a8ee24c76a011bf4d7,67ce4cdac9e27ae798d3f54f,67ce5aebe209466b5a870507,0,"{""Q0"":""material""}",sidewalk,category_organization
67ce5befaac2aea29b28682c,7820,survey-multi-choice,25,164732,0,672c57a8ee24c76a011bf4d7,67ce4cdac9e27ae798d3f54f,67ce5aebe209466b5a870507,0,"{""Q0"":""none of these""}",tiger,category_organization
67ce5befaac2aea29b28682e,11820,survey-multi-choice,26,176552,0,672c57a8ee24c76a011bf4d7,67ce4cdac9e27ae798d3f54f,67ce5aebe209466b5a870507,0,"{""Q0"":""shape""}",sheet,category_organization
67ce5befaac2aea29b286830,5167,survey-multi-choice,27,181720,0,672c57a8ee24c76a011bf4d7,67ce4cdac9e27ae798d3f54f,67ce5aebe209466b5a870507,0,"{""Q0"":""material""}",snow,category_organization
67ce5befaac2aea29b286832,10404,survey-multi-choice,29,202887,0,672c57a8ee24c76a011bf4d7,67ce4cdac9e27ae798d3f54f,67ce5aebe209466b5a870507,0,"{""Q0"":""material""}",grapes,category_organization
67ce5befaac2aea29b286834,10762,survey-multi-choice,28,192482,0,672c57a8ee24c76a011bf4d7,67ce4cdac9e27ae798d3f54f,67ce5aebe209466b5a870507,0,"{""Q0"":""shape""}",candle,category_organization
67ce5befaac2aea29b286836,14991,survey-multi-choice,30,217878,0,672c57a8ee24c76a011bf4d7,67ce4cdac9e27ae798d3f54f,67ce5aebe209466b5a870507,0,"{""Q0"":""none of these""}",iron (object),category_organization
67ce5befaac2aea29b286838,3084,survey-multi-choice,31,220963,0,672c57a8ee24c76a011bf4d7,67ce4cdac9e27ae798d3f54f,67ce5aebe209466b5a870507,0,"{""Q0"":""color""}",lavender,attention_category
67ce5befaac2aea29b28683a,4442,html-button-response,32,225409,0,672c57a8ee24c76a011bf4d7,67ce4cdac9e27ae798d3f54f,67ce5aebe209466b5a870507,0,0,,
67ce5bfcaac2aea29b28683c,3928,instructions,0,3930,0,62354223d36eda662355a9c0,67ce4cdac9e27ae798d3f54f,67ce5ac9a8d378277962868b,0,,,
67ce5bfcaac2aea29b28683e,3149,survey-multi-choice,6,185466,0,62354223d36eda662355a9c0,67ce4cdac9e27ae798d3f54f,67ce5ac9a8d378277962868b,0,"{""Q0"":""color""}",red,practice_category
67ce5bfcaac2aea29b286840,1851,html-button-response,3,176701,0,62354223d36eda662355a9c0,67ce4cdac9e27ae798d3f54f,67ce5ac9a8d378277962868b,0,0,,
67ce5bfcaac2aea29b286842,6766,instructions,1,10697,0,62354223d36eda662355a9c0,67ce4cdac9e27ae798d3f54f,67ce5ac9a8d378277962868b,0,,,
67ce5bfcaac2aea29b286844,982,html-button-response,5,182316,0,62354223d36eda662355a9c0,67ce4cdac9e27ae798d3f54f,67ce5ac9a8d378277962868b,0,0,,
67ce5bfcaac2aea29b286846,4630,survey-multi-choice,4,181333,0,62354223d36eda662355a9c0,67ce4cdac9e27ae798d3f54f,67ce5ac9a8d378277962868b,0,"{""Q0"":""shape""}",square,practice_category
67ce5bfcaac2aea29b286848,164145,html-button-response,2,174849,0,62354223d36eda662355a9c0,67ce4cdac9e27ae798d3f54f,67ce5ac9a8d378277962868b,0,0,,
67ce5ca1aac2aea29b28684a,23147,instructions,1,42953,0,67ca3feda2aa6850d6c14914,67ce4cdac9e27ae798d3f54f,67ce5a63561453c8e14d03f1,0,,,
67ce5ca1aac2aea29b28684c,19801,instructions,0,19804,0,67ca3feda2aa6850d6c14914,67ce4cdac9e27ae798d3f54f,67ce5a63561453c8e14d03f1,0,,,
67ce5ca1aac2aea29b28684e,81088,html-button-response,2,124046,0,67ca3feda2aa6850d6c14914,67ce4cdac9e27ae798d3f54f,67ce5a63561453c8e14d03f1,0,0,,
67ce5ca1aac2aea29b286850,10300,html-button-response,3,134348,0,67ca3feda2aa6850d6c14914,67ce4cdac9e27ae798d3f54f,67ce5a63561453c8e14d03f1,0,0,,
67ce5ca1aac2aea29b286852,32139,survey-multi-choice,4,166493,0,67ca3feda2aa6850d6c14914,67ce4cdac9e27ae798d3f54f,67ce5a63561453c8e14d03f1,0,"{""Q0"":""shape""}",square,practice_category
67ce5ca1aac2aea29b286854,2412,html-button-response,5,168907,0,67ca3feda2aa6850d6c14914,67ce4cdac9e27ae798d3f54f,67ce5a63561453c8e14d03f1,0,0,,
67ce5ca2aac2aea29b286856,22393,survey-multi-choice,6,191303,0,67ca3feda2aa6850d6c14914,67ce4cdac9e27ae798d3f54f,67ce5a63561453c8e14d03f1,0,"{""Q0"":""color""}",red,practice_category
67ce5ca2aac2aea29b286858,1746,html-button-response,7,193053,0,67ca3feda2aa6850d6c14914,67ce4cdac9e27ae798d3f54f,67ce5a63561453c8e14d03f1,0,0,,
67ce5ca2aac2aea29b28685a,1643,html-button-response,9,202536,0,67ca3feda2aa6850d6c14914,67ce4cdac9e27ae798d3f54f,67ce5a63561453c8e14d03f1,0,0,,
67ce5ca2aac2aea29b28685c,7834,survey-multi-choice,8,200890,0,67ca3feda2aa6850d6c14914,67ce4cdac9e27ae798d3f54f,67ce5a63561453c8e14d03f1,0,"{""Q0"":""material""}",wooden,practice_category
67ce5ca2aac2aea29b28685e,6186,html-button-response,10,208724,0,67ca3feda2aa6850d6c14914,67ce4cdac9e27ae798d3f54f,67ce5a63561453c8e14d03f1,0,0,,
67ce5ca2aac2aea29b286860,38403,survey-multi-choice,11,247130,0,67ca3feda2aa6850d6c14914,67ce4cdac9e27ae798d3f54f,67ce5a63561453c8e14d03f1,0,"{""Q0"":""shape""}",skirt,category_organization
67ce5ca2aac2aea29b286862,48959,survey-multi-choice,12,296092,0,67ca3feda2aa6850d6c14914,67ce4cdac9e27ae798d3f54f,67ce5a63561453c8e14d03f1,0,"{""Q0"":""shape""}",soup,category_organization
67ce5ca2aac2aea29b286864,23309,survey-multi-choice,13,319404,0,67ca3feda2aa6850d6c14914,67ce4cdac9e27ae798d3f54f,67ce5a63561453c8e14d03f1,0,"{""Q0"":""none of these""}",rooster,category_organization
67ce5ca2aac2aea29b286866,20906,survey-multi-choice,14,340313,0,67ca3feda2aa6850d6c14914,67ce4cdac9e27ae798d3f54f,67ce5a63561453c8e14d03f1,0,"{""Q0"":""shape""}",leg,category_organization
67ce5ca2aac2aea29b286868,21660,survey-multi-choice,15,361976,0,67ca3feda2aa6850d6c14914,67ce4cdac9e27ae798d3f54f,67ce5a63561453c8e14d03f1,0,"{""Q0"":""none of these""}",butt,category_organization
67ce5ca2aac2aea29b28686a,14098,survey-multi-choice,16,376077,0,67ca3feda2aa6850d6c14914,67ce4cdac9e27ae798d3f54f,67ce5a63561453c8e14d03f1,0,"{""Q0"":""none of these""}",bug,category_organization
67ce5ca2aac2aea29b28686c,4947,survey-multi-choice,17,381027,0,67ca3feda2aa6850d6c14914,67ce4cdac9e27ae798d3f54f,67ce5a63561453c8e14d03f1,0,"{""Q0"":""none of these""}",spider,category_organization
67ce5ca2aac2aea29b28686e,6255,survey-multi-choice,18,387284,0,67ca3feda2aa6850d6c14914,67ce4cdac9e27ae798d3f54f,67ce5a63561453c8e14d03f1,0,"{""Q0"":""shape""}",star,category_organization
67ce5ca2aac2aea29b286870,16985,survey-multi-choice,19,404273,0,67ca3feda2aa6850d6c14914,67ce4cdac9e27ae798d3f54f,67ce5a63561453c8e14d03f1,0,"{""Q0"":""shape""}",bottle,category_organization
67ce5ca3aac2aea29b286872,6832,survey-multi-choice,20,411108,0,67ca3feda2aa6850d6c14914,67ce4cdac9e27ae798d3f54f,67ce5a63561453c8e14d03f1,0,"{""Q0"":""none of these""}",squirrel,category_organization
67ce5ca3aac2aea29b286874,13048,survey-multi-choice,21,424158,0,67ca3feda2aa6850d6c14914,67ce4cdac9e27ae798d3f54f,67ce5a63561453c8e14d03f1,0,"{""Q0"":""shape""}",mask,category_organization
67ce5ca3aac2aea29b286876,13392,survey-multi-choice,23,449363,0,67ca3feda2aa6850d6c14914,67ce4cdac9e27ae798d3f54f,67ce5a63561453c8e14d03f1,0,"{""Q0"":""shape""}",bucket,category_organization
67ce5ca3aac2aea29b286878,11807,survey-multi-choice,22,435968,0,67ca3feda2aa6850d6c14914,67ce4cdac9e27ae798d3f54f,67ce5a63561453c8e14d03f1,0,"{""Q0"":""shape""}",hamburger,category_organization
67ce5ca3aac2aea29b28687a,2744,survey-multi-choice,25,458363,0,67ca3feda2aa6850d6c14914,67ce4cdac9e27ae798d3f54f,67ce5a63561453c8e14d03f1,0,"{""Q0"":""shape""}",doll,category_organization
67ce5ca3aac2aea29b28687c,6251,survey-multi-choice,24,455617,0,67ca3feda2aa6850d6c14914,67ce4cdac9e27ae798d3f54f,67ce5a63561453c8e14d03f1,0,"{""Q0"":""shape""}",blanket,category_organization
67ce5ca3aac2aea29b28687e,4884,survey-multi-choice,26,463250,0,67ca3feda2aa6850d6c14914,67ce4cdac9e27ae798d3f54f,67ce5a63561453c8e14d03f1,0,"{""Q0"":""none of these""}",bee,category_organization
67ce5ca3aac2aea29b286880,14985,survey-multi-choice,27,478237,0,67ca3feda2aa6850d6c14914,67ce4cdac9e27ae798d3f54f,67ce5a63561453c8e14d03f1,0,"{""Q0"":""shape""}",car,category_organization
67ce5ca3aac2aea29b286882,6743,survey-multi-choice,29,500821,0,67ca3feda2aa6850d6c14914,67ce4cdac9e27ae798d3f54f,67ce5a63561453c8e14d03f1,0,"{""Q0"":""material""}",corn,category_organization
67ce5ca3aac2aea29b286884,15833,survey-multi-choice,28,494073,0,67ca3feda2aa6850d6c14914,67ce4cdac9e27ae798d3f54f,67ce5a63561453c8e14d03f1,0,"{""Q0"":""none of these""}",sweets,category_organization
67ce5ca3aac2aea29b286886,3800,survey-multi-choice,30,504623,0,67ca3feda2aa6850d6c14914,67ce4cdac9e27ae798d3f54f,67ce5a63561453c8e14d03f1,0,"{""Q0"":""none of these""}",butterfly,category_organization
67ce5ca3aac2aea29b286888,16121,survey-multi-choice,31,520747,0,67ca3feda2aa6850d6c14914,67ce4cdac9e27ae798d3f54f,67ce5a63561453c8e14d03f1,0,"{""Q0"":""color""}",lavender,attention_category
67ce5ca3aac2aea29b28688a,4188,html-button-response,32,524940,0,67ca3feda2aa6850d6c14914,67ce4cdac9e27ae798d3f54f,67ce5a63561453c8e14d03f1,0,0,,
67ce5cdfaac2aea29b28688c,5982,instructions,0,5983,0,5dd5bc19108b6757d0f0435f,67ce4cdac9e27ae798d3f54f,67ce5c7b592e584608dfba2e,0,,,
67ce5cdfaac2aea29b28688e,1327,html-button-response,3,11015,0,5dd5bc19108b6757d0f0435f,67ce4cdac9e27ae798d3f54f,67ce5c7b592e584608dfba2e,0,0,,
67ce5cdfaac2aea29b286890,1734,instructions,1,7718,0,5dd5bc19108b6757d0f0435f,67ce4cdac9e27ae798d3f54f,67ce5c7b592e584608dfba2e,0,,,
67ce5cdfaac2aea29b286892,966,html-button-response,5,18751,0,5dd5bc19108b6757d0f0435f,67ce4cdac9e27ae798d3f54f,67ce5c7b592e584608dfba2e,0,0,,
67ce5ce0aac2aea29b286894,1967,html-button-response,2,9687,0,5dd5bc19108b6757d0f0435f,67ce4cdac9e27ae798d3f54f,67ce5c7b592e584608dfba2e,0,0,,
67ce5ce0aac2aea29b286896,6767,survey-multi-choice,4,17784,0,5dd5bc19108b6757d0f0435f,67ce4cdac9e27ae798d3f54f,67ce5c7b592e584608dfba2e,0,"{""Q0"":""shape""}",square,practice_category
67ce5ce0aac2aea29b286898,3927,survey-multi-choice,6,22679,0,5dd5bc19108b6757d0f0435f,67ce4cdac9e27ae798d3f54f,67ce5c7b592e584608dfba2e,0,"{""Q0"":""color""}",red,practice_category
67ce5ce0aac2aea29b28689a,679,html-button-response,7,23358,0,5dd5bc19108b6757d0f0435f,67ce4cdac9e27ae798d3f54f,67ce5c7b592e584608dfba2e,0,0,,
67ce5ce0aac2aea29b28689c,3655,survey-multi-choice,8,27014,0,5dd5bc19108b6757d0f0435f,67ce4cdac9e27ae798d3f54f,67ce5c7b592e584608dfba2e,0,"{""Q0"":""material""}",wooden,practice_category
67ce5ce0aac2aea29b28689e,631,html-button-response,9,27646,0,5dd5bc19108b6757d0f0435f,67ce4cdac9e27ae798d3f54f,67ce5c7b592e584608dfba2e,0,0,,
67ce5ce0aac2aea29b2868a0,1024,html-button-response,10,28671,0,5dd5bc19108b6757d0f0435f,67ce4cdac9e27ae798d3f54f,67ce5c7b592e584608dfba2e,0,0,,
67ce5ce0aac2aea29b2868a2,6895,survey-multi-choice,11,35567,0,5dd5bc19108b6757d0f0435f,67ce4cdac9e27ae798d3f54f,67ce5c7b592e584608dfba2e,0,"{""Q0"":""none of these""}",game,category_organization
67ce5ce0aac2aea29b2868a4,4303,survey-multi-choice,12,39870,0,5dd5bc19108b6757d0f0435f,67ce4cdac9e27ae798d3f54f,67ce5c7b592e584608dfba2e,0,"{""Q0"":""none of these""}",penis,category_organization
67ce5ce0aac2aea29b2868a6,3792,survey-multi-choice,13,43663,0,5dd5bc19108b6757d0f0435f,67ce4cdac9e27ae798d3f54f,67ce5c7b592e584608dfba2e,0,"{""Q0"":""none of these""}",ear,category_organization
67ce5ce0aac2aea29b2868a8,4488,survey-multi-choice,14,48152,0,5dd5bc19108b6757d0f0435f,67ce4cdac9e27ae798d3f54f,67ce5c7b592e584608dfba2e,0,"{""Q0"":""material""}",sneaker,category_organization
67ce5ce0aac2aea29b2868aa,2830,survey-multi-choice,15,50982,0,5dd5bc19108b6757d0f0435f,67ce4cdac9e27ae798d3f54f,67ce5c7b592e584608dfba2e,0,"{""Q0"":""none of these""}",present,category_organization
67ce5ce0aac2aea29b2868ac,2951,survey-multi-choice,16,53935,0,5dd5bc19108b6757d0f0435f,67ce4cdac9e27ae798d3f54f,67ce5c7b592e584608dfba2e,0,"{""Q0"":""none of these""}",bucket,category_organization
67ce5ce0aac2aea29b2868ae,2559,survey-multi-choice,17,56495,0,5dd5bc19108b6757d0f0435f,67ce4cdac9e27ae798d3f54f,67ce5c7b592e584608dfba2e,0,"{""Q0"":""none of these""}",orange juice,category_organization
67ce5ce0aac2aea29b2868b0,1655,survey-multi-choice,18,58150,0,5dd5bc19108b6757d0f0435f,67ce4cdac9e27ae798d3f54f,67ce5c7b592e584608dfba2e,0,"{""Q0"":""none of these""}",bubbles,category_organization
67ce5ce0aac2aea29b2868b2,1903,survey-multi-choice,19,60054,0,5dd5bc19108b6757d0f0435f,67ce4cdac9e27ae798d3f54f,67ce5c7b592e584608dfba2e,0,"{""Q0"":""none of these""}",back,category_organization
67ce5ce0aac2aea29b2868b4,2392,survey-multi-choice,20,62447,0,5dd5bc19108b6757d0f0435f,67ce4cdac9e27ae798d3f54f,67ce5c7b592e584608dfba2e,0,"{""Q0"":""none of these""}",snail,category_organization
67ce5ce0aac2aea29b2868b6,1686,survey-multi-choice,21,64134,0,5dd5bc19108b6757d0f0435f,67ce4cdac9e27ae798d3f54f,67ce5c7b592e584608dfba2e,0,"{""Q0"":""none of these""}",mouse,category_organization
67ce5ce0aac2aea29b2868b8,2273,survey-multi-choice,22,66408,0,5dd5bc19108b6757d0f0435f,67ce4cdac9e27ae798d3f54f,67ce5c7b592e584608dfba2e,0,"{""Q0"":""material""}",wood,category_organization
67ce5ce0aac2aea29b2868ba,1846,survey-multi-choice,23,68254,0,5dd5bc19108b6757d0f0435f,67ce4cdac9e27ae798d3f54f,67ce5c7b592e584608dfba2e,0,"{""Q0"":""none of these""}",soda,category_organization
67ce5ce0aac2aea29b2868bc,2072,survey-multi-choice,24,70326,0,5dd5bc19108b6757d0f0435f,67ce4cdac9e27ae798d3f54f,67ce5c7b592e584608dfba2e,0,"{""Q0"":""none of these""}",cradle,category_organization
67ce5ce0aac2aea29b2868be,2639,survey-multi-choice,25,72966,0,5dd5bc19108b6757d0f0435f,67ce4cdac9e27ae798d3f54f,67ce5c7b592e584608dfba2e,0,"{""Q0"":""material""}",glass,category_organization
67ce5ce0aac2aea29b2868c0,2208,survey-multi-choice,26,75175,0,5dd5bc19108b6757d0f0435f,67ce4cdac9e27ae798d3f54f,67ce5c7b592e584608dfba2e,0,"{""Q0"":""none of these""}",beans,category_organization
67ce5ce0aac2aea29b2868c2,1400,survey-multi-choice,28,78431,0,5dd5bc19108b6757d0f0435f,67ce4cdac9e27ae798d3f54f,67ce5c7b592e584608dfba2e,0,"{""Q0"":""none of these""}",food,category_organization
67ce5ce0aac2aea29b2868c4,1854,survey-multi-choice,27,77030,0,5dd5bc19108b6757d0f0435f,67ce4cdac9e27ae798d3f54f,67ce5c7b592e584608dfba2e,0,"{""Q0"":""none of these""}",soup,category_organization
67ce5ce0aac2aea29b2868c6,2368,survey-multi-choice,29,80799,0,5dd5bc19108b6757d0f0435f,67ce4cdac9e27ae798d3f54f,67ce5c7b592e584608dfba2e,0,"{""Q0"":""none of these""}",camera,category_organization
67ce5ce0aac2aea29b2868c8,1702,survey-multi-choice,30,82502,0,5dd5bc19108b6757d0f0435f,67ce4cdac9e27ae798d3f54f,67ce5c7b592e584608dfba2e,0,"{""Q0"":""none of these""}",picture,category_organization
67ce5ce0aac2aea29b2868ca,2729,survey-multi-choice,31,85231,0,5dd5bc19108b6757d0f0435f,67ce4cdac9e27ae798d3f54f,67ce5c7b592e584608dfba2e,0,"{""Q0"":""color""}",lavender,attention_category
67ce5ce0aac2aea29b2868cc,4534,html-button-response,32,89766,0,5dd5bc19108b6757d0f0435f,67ce4cdac9e27ae798d3f54f,67ce5c7b592e584608dfba2e,0,0,,
67ce5cf0aac2aea29b2868ce,7878,instructions,0,7881,0,602406261d35ab035a4da074,67ce4cdac9e27ae798d3f54f,67ce5bccde855cc7cd629a08,0,,,
67ce5cf0aac2aea29b2868d0,4632,instructions,1,12514,0,602406261d35ab035a4da074,67ce4cdac9e27ae798d3f54f,67ce5bccde855cc7cd629a08,0,,,
67ce5cf0aac2aea29b2868d2,15136,html-button-response,2,27651,0,602406261d35ab035a4da074,67ce4cdac9e27ae798d3f54f,67ce5bccde855cc7cd629a08,0,0,,
67ce5cf0aac2aea29b2868d4,1765,html-button-response,5,42447,0,602406261d35ab035a4da074,67ce4cdac9e27ae798d3f54f,67ce5bccde855cc7cd629a08,0,0,,
67ce5cf0aac2aea29b2868d6,3095,html-button-response,3,30747,0,602406261d35ab035a4da074,67ce4cdac9e27ae798d3f54f,67ce5bccde855cc7cd629a08,0,0,,
67ce5cf0aac2aea29b2868d8,9933,survey-multi-choice,4,40681,0,602406261d35ab035a4da074,67ce4cdac9e27ae798d3f54f,67ce5bccde855cc7cd629a08,0,"{""Q0"":""shape""}",square,practice_category
67ce5cf0aac2aea29b2868da,6368,survey-multi-choice,6,48815,0,602406261d35ab035a4da074,67ce4cdac9e27ae798d3f54f,67ce5bccde855cc7cd629a08,0,"{""Q0"":""color""}",red,practice_category
67ce5cf1aac2aea29b2868dc,1631,html-button-response,7,50447,0,602406261d35ab035a4da074,67ce4cdac9e27ae798d3f54f,67ce5bccde855cc7cd629a08,0,0,,
67ce5cf1aac2aea29b2868de,1532,html-button-response,9,56764,0,602406261d35ab035a4da074,67ce4cdac9e27ae798d3f54f,67ce5bccde855cc7cd629a08,0,0,,
67ce5cf1aac2aea29b2868e0,8181,survey-multi-choice,11,67015,0,602406261d35ab035a4da074,67ce4cdac9e27ae798d3f54f,67ce5bccde855cc7cd629a08,0,"{""Q0"":""shape""}",oven,category_organization
67ce5cf1aac2aea29b2868e2,2068,html-button-response,10,58833,0,602406261d35ab035a4da074,67ce4cdac9e27ae798d3f54f,67ce5bccde855cc7cd629a08,0,0,,
67ce5cf1aac2aea29b2868e4,4783,survey-multi-choice,8,55231,0,602406261d35ab035a4da074,67ce4cdac9e27ae798d3f54f,67ce5bccde855cc7cd629a08,0,"{""Q0"":""material""}",wooden,practice_category
67ce5cf1aac2aea29b2868e6,15685,survey-multi-choice,12,82700,0,602406261d35ab035a4da074,67ce4cdac9e27ae798d3f54f,67ce5bccde855cc7cd629a08,0,"{""Q0"":""shape""}",hippopotamus,category_organization
67ce5cf1aac2aea29b2868e8,8646,survey-multi-choice,13,91347,0,602406261d35ab035a4da074,67ce4cdac9e27ae798d3f54f,67ce5bccde855cc7cd629a08,0,"{""Q0"":""shape""}",blocks,category_organization
67ce5cf1aac2aea29b2868ea,13450,survey-multi-choice,14,104798,0,602406261d35ab035a4da074,67ce4cdac9e27ae798d3f54f,67ce5bccde855cc7cd629a08,0,"{""Q0"":""none of these""}",seagull,category_organization
67ce5cf1aac2aea29b2868ec,9484,survey-multi-choice,16,119166,0,602406261d35ab035a4da074,67ce4cdac9e27ae798d3f54f,67ce5bccde855cc7cd629a08,0,"{""Q0"":""none of these""}",head,category_organization
67ce5cf1aac2aea29b2868ee,4883,survey-multi-choice,15,109681,0,602406261d35ab035a4da074,67ce4cdac9e27ae798d3f54f,67ce5bccde855cc7cd629a08,0,"{""Q0"":""shape""}",stairs,category_organization
67ce5cf1aac2aea29b2868f0,15433,survey-multi-choice,18,141599,0,602406261d35ab035a4da074,67ce4cdac9e27ae798d3f54f,67ce5bccde855cc7cd629a08,0,"{""Q0"":""material""}",chocolate,category_organization
67ce5cf1aac2aea29b2868f2,6998,survey-multi-choice,17,126165,0,602406261d35ab035a4da074,67ce4cdac9e27ae798d3f54f,67ce5bccde855cc7cd629a08,0,"{""Q0"":""shape""}",ladder,category_organization
67ce5cf1aac2aea29b2868f4,12771,survey-multi-choice,19,154371,0,602406261d35ab035a4da074,67ce4cdac9e27ae798d3f54f,67ce5bccde855cc7cd629a08,0,"{""Q0"":""none of these""}",roof,category_organization
67ce5cf1aac2aea29b2868f6,7682,survey-multi-choice,23,184981,0,602406261d35ab035a4da074,67ce4cdac9e27ae798d3f54f,67ce5bccde855cc7cd629a08,0,"{""Q0"":""none of these""}",street,category_organization
67ce5cf1aac2aea29b2868f8,5897,survey-multi-choice,21,169513,0,602406261d35ab035a4da074,67ce4cdac9e27ae798d3f54f,67ce5bccde855cc7cd629a08,0,"{""Q0"":""none of these""}",cheek,category_organization
67ce5cf1aac2aea29b2868fa,9244,survey-multi-choice,20,163616,0,602406261d35ab035a4da074,67ce4cdac9e27ae798d3f54f,67ce5bccde855cc7cd629a08,0,"{""Q0"":""shape""}",chair,category_organization
67ce5cf1aac2aea29b2868fc,7900,survey-multi-choice,24,192882,0,602406261d35ab035a4da074,67ce4cdac9e27ae798d3f54f,67ce5bccde855cc7cd629a08,0,"{""Q0"":""material""}",meatball,category_organization
67ce5cf1aac2aea29b2868fe,7784,survey-multi-choice,22,177298,0,602406261d35ab035a4da074,67ce4cdac9e27ae798d3f54f,67ce5bccde855cc7cd629a08,0,"{""Q0"":""none of these""}",doorbell,category_organization
67ce5cf1aac2aea29b286900,12883,survey-multi-choice,25,205765,0,602406261d35ab035a4da074,67ce4cdac9e27ae798d3f54f,67ce5bccde855cc7cd629a08,0,"{""Q0"":""material""}",pumpkin,category_organization
67ce5cf1aac2aea29b286902,10416,survey-multi-choice,26,216182,0,602406261d35ab035a4da074,67ce4cdac9e27ae798d3f54f,67ce5bccde855cc7cd629a08,0,"{""Q0"":""shape""}",eye,category_organization
67ce5cf1aac2aea29b286904,7231,survey-multi-choice,27,223413,0,602406261d35ab035a4da074,67ce4cdac9e27ae798d3f54f,67ce5bccde855cc7cd629a08,0,"{""Q0"":""shape""}",tray,category_organization
67ce5cf1aac2aea29b286906,6967,survey-multi-choice,28,230381,0,602406261d35ab035a4da074,67ce4cdac9e27ae798d3f54f,67ce5bccde855cc7cd629a08,0,"{""Q0"":""material""}",grapes,category_organization
67ce5cf1aac2aea29b286908,5282,survey-multi-choice,29,235664,0,602406261d35ab035a4da074,67ce4cdac9e27ae798d3f54f,67ce5bccde855cc7cd629a08,0,"{""Q0"":""material""}",bread,category_organization
67ce5cf1aac2aea29b28690a,7104,survey-multi-choice,30,242768,0,602406261d35ab035a4da074,67ce4cdac9e27ae798d3f54f,67ce5bccde855cc7cd629a08,0,"{""Q0"":""none of these""}",head,category_organization
67ce5cf1aac2aea29b28690c,5029,survey-multi-choice,31,247798,0,602406261d35ab035a4da074,67ce4cdac9e27ae798d3f54f,67ce5bccde855cc7cd629a08,0,"{""Q0"":""color""}",lavender,attention_category
67ce5cf1aac2aea29b28690e,2751,html-button-response,32,250550,0,602406261d35ab035a4da074,67ce4cdac9e27ae798d3f54f,67ce5bccde855cc7cd629a08,0,0,,
67ce5d70aac2aea29b286910,12195,instructions,0,12197,0,67872c15afd8f8159d86cede,67ce4cdac9e27ae798d3f54f,67ce5c31a252fd1c8c327b9b,0,,,
67ce5d70aac2aea29b286912,22077,instructions,1,34277,0,67872c15afd8f8159d86cede,67ce4cdac9e27ae798d3f54f,67ce5c31a252fd1c8c327b9b,0,,,
67ce5d70aac2aea29b286914,49282,html-button-response,2,83561,0,67872c15afd8f8159d86cede,67ce4cdac9e27ae798d3f54f,67ce5c31a252fd1c8c327b9b,0,0,,
67ce5d70aac2aea29b286916,5207,html-button-response,3,88770,0,67872c15afd8f8159d86cede,67ce4cdac9e27ae798d3f54f,67ce5c31a252fd1c8c327b9b,0,0,,
67ce5d70aac2aea29b286918,12104,survey-multi-choice,4,100876,0,67872c15afd8f8159d86cede,67ce4cdac9e27ae798d3f54f,67ce5c31a252fd1c8c327b9b,0,"{""Q0"":""shape""}",square,practice_category
67ce5d70aac2aea29b28691a,1963,html-button-response,5,102843,0,67872c15afd8f8159d86cede,67ce4cdac9e27ae798d3f54f,67ce5c31a252fd1c8c327b9b,0,0,,
67ce5d70aac2aea29b28691c,12840,survey-multi-choice,6,115688,0,67872c15afd8f8159d86cede,67ce4cdac9e27ae798d3f54f,67ce5c31a252fd1c8c327b9b,0,"{""Q0"":""color""}",red,practice_category
67ce5d70aac2aea29b28691e,1791,html-button-response,7,117484,0,67872c15afd8f8159d86cede,67ce4cdac9e27ae798d3f54f,67ce5c31a252fd1c8c327b9b,0,0,,
67ce5d70aac2aea29b286920,6834,survey-multi-choice,8,124321,0,67872c15afd8f8159d86cede,67ce4cdac9e27ae798d3f54f,67ce5c31a252fd1c8c327b9b,0,"{""Q0"":""material""}",wooden,practice_category
67ce5d70aac2aea29b286922,2061,html-button-response,9,126385,0,67872c15afd8f8159d86cede,67ce4cdac9e27ae798d3f54f,67ce5c31a252fd1c8c327b9b,0,0,,
67ce5d70aac2aea29b286924,3689,html-button-response,10,130076,0,67872c15afd8f8159d86cede,67ce4cdac9e27ae798d3f54f,67ce5c31a252fd1c8c327b9b,0,0,,
67ce5d70aac2aea29b286926,14590,survey-multi-choice,11,144672,0,67872c15afd8f8159d86cede,67ce4cdac9e27ae798d3f54f,67ce5c31a252fd1c8c327b9b,0,"{""Q0"":""none of these""}",lamb,category_organization
67ce5d70aac2aea29b286928,7720,survey-multi-choice,12,152399,0,67872c15afd8f8159d86cede,67ce4cdac9e27ae798d3f54f,67ce5c31a252fd1c8c327b9b,0,"{""Q0"":""none of these""}",pants,category_organization
67ce5d70aac2aea29b28692a,5335,survey-multi-choice,13,157739,0,67872c15afd8f8159d86cede,67ce4cdac9e27ae798d3f54f,67ce5c31a252fd1c8c327b9b,0,"{""Q0"":""none of these""}",street,category_organization
67ce5d70aac2aea29b28692c,7822,survey-multi-choice,14,165565,0,67872c15afd8f8159d86cede,67ce4cdac9e27ae798d3f54f,67ce5c31a252fd1c8c327b9b,0,"{""Q0"":""material""}",trash,category_organization
67ce5d70aac2aea29b28692e,6421,survey-multi-choice,15,171992,0,67872c15afd8f8159d86cede,67ce4cdac9e27ae798d3f54f,67ce5c31a252fd1c8c327b9b,0,"{""Q0"":""none of these""}",tram,category_organization
67ce5d70aac2aea29b286930,4697,survey-multi-choice,16,176692,0,67872c15afd8f8159d86cede,67ce4cdac9e27ae798d3f54f,67ce5c31a252fd1c8c327b9b,0,"{""Q0"":""none of these""}",spider,category_organization
67ce5d70aac2aea29b286932,8562,survey-multi-choice,17,185261,0,67872c15afd8f8159d86cede,67ce4cdac9e27ae798d3f54f,67ce5c31a252fd1c8c327b9b,0,"{""Q0"":""none of these""}",bib,category_organization
67ce5d70aac2aea29b286934,5173,survey-multi-choice,18,190438,0,67872c15afd8f8159d86cede,67ce4cdac9e27ae798d3f54f,67ce5c31a252fd1c8c327b9b,0,"{""Q0"":""none of these""}",hat,category_organization
67ce5d70aac2aea29b286936,5732,survey-multi-choice,19,196173,0,67872c15afd8f8159d86cede,67ce4cdac9e27ae798d3f54f,67ce5c31a252fd1c8c327b9b,0,"{""Q0"":""none of these""}",flag,category_organization
67ce5d70aac2aea29b286938,12465,survey-multi-choice,20,208643,0,67872c15afd8f8159d86cede,67ce4cdac9e27ae798d3f54f,67ce5c31a252fd1c8c327b9b,0,"{""Q0"":""shape""}",broom,category_organization
67ce5d70aac2aea29b28693a,6008,survey-multi-choice,21,214657,0,67872c15afd8f8159d86cede,67ce4cdac9e27ae798d3f54f,67ce5c31a252fd1c8c327b9b,0,"{""Q0"":""none of these""}",chick,category_organization
67ce5d70aac2aea29b28693c,5520,survey-multi-choice,22,220182,0,67872c15afd8f8159d86cede,67ce4cdac9e27ae798d3f54f,67ce5c31a252fd1c8c327b9b,0,"{""Q0"":""material""}",porridge,category_organization
67ce5d70aac2aea29b28693e,9579,survey-multi-choice,23,229765,0,67872c15afd8f8159d86cede,67ce4cdac9e27ae798d3f54f,67ce5c31a252fd1c8c327b9b,0,"{""Q0"":""material""}",syrup,category_organization
67ce5d71aac2aea29b286940,9587,survey-multi-choice,24,239356,0,67872c15afd8f8159d86cede,67ce4cdac9e27ae798d3f54f,67ce5c31a252fd1c8c327b9b,0,"{""Q0"":""none of these""}",iron (object),category_organization
67ce5d71aac2aea29b286942,5195,survey-multi-choice,25,244556,0,67872c15afd8f8159d86cede,67ce4cdac9e27ae798d3f54f,67ce5c31a252fd1c8c327b9b,0,"{""Q0"":""none of these""}",light (object),category_organization
67ce5d71aac2aea29b286944,5214,survey-multi-choice,26,249777,0,67872c15afd8f8159d86cede,67ce4cdac9e27ae798d3f54f,67ce5c31a252fd1c8c327b9b,0,"{""Q0"":""none of these""}",duck,category_organization
67ce5d71aac2aea29b286946,6847,survey-multi-choice,27,256628,0,67872c15afd8f8159d86cede,67ce4cdac9e27ae798d3f54f,67ce5c31a252fd1c8c327b9b,0,"{""Q0"":""none of these""}",pacifier,category_organization
67ce5d71aac2aea29b286948,6013,survey-multi-choice,28,262647,0,67872c15afd8f8159d86cede,67ce4cdac9e27ae798d3f54f,67ce5c31a252fd1c8c327b9b,0,"{""Q0"":""none of these""}",purse,category_organization
67ce5d71aac2aea29b28694a,6025,survey-multi-choice,29,268677,0,67872c15afd8f8159d86cede,67ce4cdac9e27ae798d3f54f,67ce5c31a252fd1c8c327b9b,0,"{""Q0"":""none of these""}",sticker,category_organization
67ce5d71aac2aea29b28694c,4644,survey-multi-choice,30,273323,0,67872c15afd8f8159d86cede,67ce4cdac9e27ae798d3f54f,67ce5c31a252fd1c8c327b9b,0,"{""Q0"":""none of these""}",wolf,category_organization
67ce5d71aac2aea29b28694e,4811,survey-multi-choice,31,278137,0,67872c15afd8f8159d86cede,67ce4cdac9e27ae798d3f54f,67ce5c31a252fd1c8c327b9b,0,"{""Q0"":""color""}",lavender,attention_category
67ce5d71aac2aea29b286950,8244,html-button-response,32,286386,0,67872c15afd8f8159d86cede,67ce4cdac9e27ae798d3f54f,67ce5c31a252fd1c8c327b9b,0,0,,
67ce5dc0aac2aea29b286952,2570,instructions,0,2571,0,67782acdee0e47624fa89ca8,67ce4cdac9e27ae798d3f54f,67ce5d56b83bbf50b4f84e82,0,,,
67ce5dc0aac2aea29b286954,9133,html-button-response,2,17406,0,67782acdee0e47624fa89ca8,67ce4cdac9e27ae798d3f54f,67ce5d56b83bbf50b4f84e82,0,0,,
67ce5dc0aac2aea29b286956,3082,survey-multi-choice,6,28822,0,67782acdee0e47624fa89ca8,67ce4cdac9e27ae798d3f54f,67ce5d56b83bbf50b4f84e82,0,"{""Q0"":""color""}",red,practice_category
67ce5dc0aac2aea29b286958,1248,html-button-response,5,25740,0,67782acdee0e47624fa89ca8,67ce4cdac9e27ae798d3f54f,67ce5d56b83bbf50b4f84e82,0,0,,
67ce5dc0aac2aea29b28695a,1948,html-button-response,3,19355,0,67782acdee0e47624fa89ca8,67ce4cdac9e27ae798d3f54f,67ce5d56b83bbf50b4f84e82,0,0,,
67ce5dc0aac2aea29b28695c,5698,instructions,1,8270,0,67782acdee0e47624fa89ca8,67ce4cdac9e27ae798d3f54f,67ce5d56b83bbf50b4f84e82,0,,,
67ce5dc0aac2aea29b28695e,5133,survey-multi-choice,4,24491,0,67782acdee0e47624fa89ca8,67ce4cdac9e27ae798d3f54f,67ce5d56b83bbf50b4f84e82,0,"{""Q0"":""shape""}",square,practice_category
67ce5dc0aac2aea29b286960,1331,html-button-response,10,35372,0,67782acdee0e47624fa89ca8,67ce4cdac9e27ae798d3f54f,67ce5d56b83bbf50b4f84e82,0,0,,
67ce5dc0aac2aea29b286962,3404,survey-multi-choice,8,33226,0,67782acdee0e47624fa89ca8,67ce4cdac9e27ae798d3f54f,67ce5d56b83bbf50b4f84e82,0,"{""Q0"":""material""}",wooden,practice_category
67ce5dc0aac2aea29b286964,998,html-button-response,7,29821,0,67782acdee0e47624fa89ca8,67ce4cdac9e27ae798d3f54f,67ce5d56b83bbf50b4f84e82,0,0,,
67ce5dc0aac2aea29b286966,4517,survey-multi-choice,12,46640,0,67782acdee0e47624fa89ca8,67ce4cdac9e27ae798d3f54f,67ce5d56b83bbf50b4f84e82,0,"{""Q0"":""none of these""}",butt,category_organization
67ce5dc0aac2aea29b286968,6748,survey-multi-choice,11,42122,0,67782acdee0e47624fa89ca8,67ce4cdac9e27ae798d3f54f,67ce5d56b83bbf50b4f84e82,0,"{""Q0"":""none of these""}",potty,category_organization
67ce5dc0aac2aea29b28696a,814,html-button-response,9,34041,0,67782acdee0e47624fa89ca8,67ce4cdac9e27ae798d3f54f,67ce5d56b83bbf50b4f84e82,0,0,,
67ce5dc0aac2aea29b28696c,4749,survey-multi-choice,13,51390,0,67782acdee0e47624fa89ca8,67ce4cdac9e27ae798d3f54f,67ce5d56b83bbf50b4f84e82,0,"{""Q0"":""none of these""}",car,category_organization
67ce5dc0aac2aea29b28696e,2315,survey-multi-choice,14,53706,0,67782acdee0e47624fa89ca8,67ce4cdac9e27ae798d3f54f,67ce5d56b83bbf50b4f84e82,0,"{""Q0"":""none of these""}",cheek,category_organization
67ce5dc0aac2aea29b286970,3032,survey-multi-choice,15,56739,0,67782acdee0e47624fa89ca8,67ce4cdac9e27ae798d3f54f,67ce5d56b83bbf50b4f84e82,0,"{""Q0"":""material""}",sheep,category_organization
67ce5dc0aac2aea29b286972,1618,survey-multi-choice,16,58359,0,67782acdee0e47624fa89ca8,67ce4cdac9e27ae798d3f54f,67ce5d56b83bbf50b4f84e82,0,"{""Q0"":""none of these""}",tooth,category_organization
67ce5dc0aac2aea29b286974,2546,survey-multi-choice,17,60905,0,67782acdee0e47624fa89ca8,67ce4cdac9e27ae798d3f54f,67ce5d56b83bbf50b4f84e82,0,"{""Q0"":""none of these""}",belly button,category_organization
67ce5dc0aac2aea29b286976,1900,survey-multi-choice,18,62806,0,67782acdee0e47624fa89ca8,67ce4cdac9e27ae798d3f54f,67ce5d56b83bbf50b4f84e82,0,"{""Q0"":""none of these""}",smoothie,category_organization
67ce5dc0aac2aea29b286978,1883,survey-multi-choice,19,64690,0,67782acdee0e47624fa89ca8,67ce4cdac9e27ae798d3f54f,67ce5d56b83bbf50b4f84e82,0,"{""Q0"":""none of these""}",monkey,category_organization
67ce5dc0aac2aea29b28697a,6949,survey-multi-choice,20,71640,0,67782acdee0e47624fa89ca8,67ce4cdac9e27ae798d3f54f,67ce5d56b83bbf50b4f84e82,0,"{""Q0"":""none of these""}",glue (object),category_organization
67ce5dc0aac2aea29b28697c,1930,survey-multi-choice,21,73571,0,67782acdee0e47624fa89ca8,67ce4cdac9e27ae798d3f54f,67ce5d56b83bbf50b4f84e82,0,"{""Q0"":""none of these""}",tummy,category_organization
67ce5dc0aac2aea29b28697e,1348,survey-multi-choice,24,78357,0,67782acdee0e47624fa89ca8,67ce4cdac9e27ae798d3f54f,67ce5d56b83bbf50b4f84e82,0,"{""Q0"":""none of these""}",lamp,category_organization
67ce5dc0aac2aea29b286980,1803,survey-multi-choice,22,75375,0,67782acdee0e47624fa89ca8,67ce4cdac9e27ae798d3f54f,67ce5d56b83bbf50b4f84e82,0,"{""Q0"":""none of these""}",watch (object),category_organization
67ce5dc0aac2aea29b286982,1631,survey-multi-choice,23,77007,0,67782acdee0e47624fa89ca8,67ce4cdac9e27ae798d3f54f,67ce5d56b83bbf50b4f84e82,0,"{""Q0"":""none of these""}",microwave,category_organization
67ce5dc0aac2aea29b286984,2299,survey-multi-choice,27,84590,0,67782acdee0e47624fa89ca8,67ce4cdac9e27ae798d3f54f,67ce5d56b83bbf50b4f84e82,0,"{""Q0"":""none of these""}",boat,category_organization
67ce5dc0aac2aea29b286986,1599,survey-multi-choice,28,86190,0,67782acdee0e47624fa89ca8,67ce4cdac9e27ae798d3f54f,67ce5d56b83bbf50b4f84e82,0,"{""Q0"":""none of these""}",bathroom,category_organization
67ce5dc0aac2aea29b286988,1597,survey-multi-choice,25,79955,0,67782acdee0e47624fa89ca8,67ce4cdac9e27ae798d3f54f,67ce5d56b83bbf50b4f84e82,0,"{""Q0"":""none of these""}",chocolate,category_organization
67ce5dc0aac2aea29b28698a,2334,survey-multi-choice,26,82290,0,67782acdee0e47624fa89ca8,67ce4cdac9e27ae798d3f54f,67ce5d56b83bbf50b4f84e82,0,"{""Q0"":""none of these""}",voice recorder,category_organization
67ce5dc0aac2aea29b28698c,2047,survey-multi-choice,30,89474,0,67782acdee0e47624fa89ca8,67ce4cdac9e27ae798d3f54f,67ce5d56b83bbf50b4f84e82,0,"{""Q0"":""none of these""}",closet,category_organization
67ce5dc0aac2aea29b28698e,1235,survey-multi-choice,29,87426,0,67782acdee0e47624fa89ca8,67ce4cdac9e27ae798d3f54f,67ce5d56b83bbf50b4f84e82,0,"{""Q0"":""none of these""}",closet,category_organization
67ce5dc0aac2aea29b286990,2164,html-button-response,32,95039,0,67782acdee0e47624fa89ca8,67ce4cdac9e27ae798d3f54f,67ce5d56b83bbf50b4f84e82,0,0,,
67ce5dc0aac2aea29b286992,3398,survey-multi-choice,31,92873,0,67782acdee0e47624fa89ca8,67ce4cdac9e27ae798d3f54f,67ce5d56b83bbf50b4f84e82,0,"{""Q0"":""color""}",lavender,attention_category
67ce5e22aac2aea29b286994,4139,instructions,0,4142,0,667aadea007705ceab557406,67ce4cdac9e27ae798d3f54f,67ce5d8b728236c95be62fbd,0,,,
67ce5e22aac2aea29b286996,3111,instructions,1,7254,0,667aadea007705ceab557406,67ce4cdac9e27ae798d3f54f,67ce5d8b728236c95be62fbd,0,,,
67ce5e22aac2aea29b286998,22555,html-button-response,2,29811,0,667aadea007705ceab557406,67ce4cdac9e27ae798d3f54f,67ce5d8b728236c95be62fbd,0,0,,
67ce5e22aac2aea29b28699a,2847,html-button-response,3,32659,0,667aadea007705ceab557406,67ce4cdac9e27ae798d3f54f,67ce5d8b728236c95be62fbd,0,0,,
67ce5e22aac2aea29b28699c,6127,survey-multi-choice,4,38788,0,667aadea007705ceab557406,67ce4cdac9e27ae798d3f54f,67ce5d8b728236c95be62fbd,0,"{""Q0"":""shape""}",square,practice_category
67ce5e22aac2aea29b28699e,1215,html-button-response,5,40004,0,667aadea007705ceab557406,67ce4cdac9e27ae798d3f54f,67ce5d8b728236c95be62fbd,0,0,,
67ce5e22aac2aea29b2869a0,4246,survey-multi-choice,6,44250,0,667aadea007705ceab557406,67ce4cdac9e27ae798d3f54f,67ce5d8b728236c95be62fbd,0,"{""Q0"":""color""}",red,practice_category
67ce5e23aac2aea29b2869a2,1048,html-button-response,7,45299,0,667aadea007705ceab557406,67ce4cdac9e27ae798d3f54f,67ce5d8b728236c95be62fbd,0,0,,
67ce5e23aac2aea29b2869a4,4693,survey-multi-choice,8,49994,0,667aadea007705ceab557406,67ce4cdac9e27ae798d3f54f,67ce5d8b728236c95be62fbd,0,"{""Q0"":""material""}",wooden,practice_category
67ce5e23aac2aea29b2869a6,1183,html-button-response,9,51178,0,667aadea007705ceab557406,67ce4cdac9e27ae798d3f54f,67ce5d8b728236c95be62fbd,0,0,,
67ce5e23aac2aea29b2869a8,4557,survey-multi-choice,11,57322,0,667aadea007705ceab557406,67ce4cdac9e27ae798d3f54f,67ce5d8b728236c95be62fbd,0,"{""Q0"":""material""}",yogurt,category_organization
67ce5e23aac2aea29b2869aa,1585,html-button-response,10,52764,0,667aadea007705ceab557406,67ce4cdac9e27ae798d3f54f,67ce5d8b728236c95be62fbd,0,0,,
67ce5e23aac2aea29b2869ac,5381,survey-multi-choice,12,62705,0,667aadea007705ceab557406,67ce4cdac9e27ae798d3f54f,67ce5d8b728236c95be62fbd,0,"{""Q0"":""shape""}",button,category_organization
67ce5e23aac2aea29b2869ae,4335,survey-multi-choice,13,67041,0,667aadea007705ceab557406,67ce4cdac9e27ae798d3f54f,67ce5d8b728236c95be62fbd,0,"{""Q0"":""material""}",toast,category_organization
67ce5e23aac2aea29b2869b0,8603,survey-multi-choice,14,75645,0,667aadea007705ceab557406,67ce4cdac9e27ae798d3f54f,67ce5d8b728236c95be62fbd,0,"{""Q0"":""shape""}",belt,category_organization
67ce5e23aac2aea29b2869b2,3812,survey-multi-choice,15,79458,0,667aadea007705ceab557406,67ce4cdac9e27ae798d3f54f,67ce5d8b728236c95be62fbd,0,"{""Q0"":""material""}",paper,category_organization
67ce5e23aac2aea29b2869b4,2786,survey-multi-choice,16,82244,0,667aadea007705ceab557406,67ce4cdac9e27ae798d3f54f,67ce5d8b728236c95be62fbd,0,"{""Q0"":""material""}",chocolate,category_organization
67ce5e23aac2aea29b2869b6,6367,survey-multi-choice,17,88613,0,667aadea007705ceab557406,67ce4cdac9e27ae798d3f54f,67ce5d8b728236c95be62fbd,0,"{""Q0"":""none of these""}",refrigerator,category_organization
67ce5e23aac2aea29b2869b8,5061,survey-multi-choice,18,93675,0,667aadea007705ceab557406,67ce4cdac9e27ae798d3f54f,67ce5d8b728236c95be62fbd,0,"{""Q0"":""none of these""}",bee,category_organization
67ce5e23aac2aea29b2869ba,5347,survey-multi-choice,19,99023,0,667aadea007705ceab557406,67ce4cdac9e27ae798d3f54f,67ce5d8b728236c95be62fbd,0,"{""Q0"":""none of these""}",candle,category_organization
67ce5e23aac2aea29b2869bc,2923,survey-multi-choice,20,101948,0,667aadea007705ceab557406,67ce4cdac9e27ae798d3f54f,67ce5d8b728236c95be62fbd,0,"{""Q0"":""shape""}",box,category_organization
67ce5e23aac2aea29b2869be,2489,survey-multi-choice,21,104437,0,667aadea007705ceab557406,67ce4cdac9e27ae798d3f54f,67ce5d8b728236c95be62fbd,0,"{""Q0"":""material""}",apple,category_organization
67ce5e23aac2aea29b2869c0,6495,survey-multi-choice,22,110933,0,667aadea007705ceab557406,67ce4cdac9e27ae798d3f54f,67ce5d8b728236c95be62fbd,0,"{""Q0"":""none of these""}",fruit,category_organization
67ce5e23aac2aea29b2869c2,5022,survey-multi-choice,23,115956,0,667aadea007705ceab557406,67ce4cdac9e27ae798d3f54f,67ce5d8b728236c95be62fbd,0,"{""Q0"":""shape""}",scarf,category_organization
67ce5e23aac2aea29b2869c4,4154,survey-multi-choice,24,120111,0,667aadea007705ceab557406,67ce4cdac9e27ae798d3f54f,67ce5d8b728236c95be62fbd,0,"{""Q0"":""shape""}",closet,category_organization
67ce5e65aac2aea29b2869c6,35359,instructions,0,35364,0,5c3471a13ce2c80001115cf0,67ce4cdac9e27ae798d3f54f,67ce5dab8591bcaae26ae890,0,,,
67ce5e65aac2aea29b2869c8,4948,instructions,1,40315,0,5c3471a13ce2c80001115cf0,67ce4cdac9e27ae798d3f54f,67ce5dab8591bcaae26ae890,0,,,
67ce5e65aac2aea29b2869ca,17642,html-button-response,2,57962,0,5c3471a13ce2c80001115cf0,67ce4cdac9e27ae798d3f54f,67ce5dab8591bcaae26ae890,0,0,,
67ce5e65aac2aea29b2869cc,2037,html-button-response,3,60001,0,5c3471a13ce2c80001115cf0,67ce4cdac9e27ae798d3f54f,67ce5dab8591bcaae26ae890,0,0,,
67ce5e65aac2aea29b2869ce,6878,survey-multi-choice,4,66883,0,5c3471a13ce2c80001115cf0,67ce4cdac9e27ae798d3f54f,67ce5dab8591bcaae26ae890,0,"{""Q0"":""shape""}",square,practice_category
67ce5e65aac2aea29b2869d0,1054,html-button-response,5,67941,0,5c3471a13ce2c80001115cf0,67ce4cdac9e27ae798d3f54f,67ce5dab8591bcaae26ae890,0,0,,
67ce5e65aac2aea29b2869d2,5022,survey-multi-choice,6,72965,0,5c3471a13ce2c80001115cf0,67ce4cdac9e27ae798d3f54f,67ce5dab8591bcaae26ae890,0,"{""Q0"":""color""}",red,practice_category
67ce5e65aac2aea29b2869d4,985,html-button-response,7,73953,0,5c3471a13ce2c80001115cf0,67ce4cdac9e27ae798d3f54f,67ce5dab8591bcaae26ae890,0,0,,
67ce5e65aac2aea29b2869d6,866,html-button-response,9,78360,0,5c3471a13ce2c80001115cf0,67ce4cdac9e27ae798d3f54f,67ce5dab8591bcaae26ae890,0,0,,
67ce5e65aac2aea29b2869d8,3538,survey-multi-choice,8,77492,0,5c3471a13ce2c80001115cf0,67ce4cdac9e27ae798d3f54f,67ce5dab8591bcaae26ae890,0,"{""Q0"":""material""}",wooden,practice_category
67ce5e65aac2aea29b2869da,2597,html-button-response,10,80959,0,5c3471a13ce2c80001115cf0,67ce4cdac9e27ae798d3f54f,67ce5dab8591bcaae26ae890,0,0,,
67ce5e65aac2aea29b2869dc,2850,survey-multi-choice,11,83812,0,5c3471a13ce2c80001115cf0,67ce4cdac9e27ae798d3f54f,67ce5dab8591bcaae26ae890,0,"{""Q0"":""shape""}",box,category_organization
67ce5e65aac2aea29b2869de,3005,survey-multi-choice,12,86822,0,5c3471a13ce2c80001115cf0,67ce4cdac9e27ae798d3f54f,67ce5dab8591bcaae26ae890,0,"{""Q0"":""material""}",hair,category_organization
67ce5e65aac2aea29b2869e0,4590,survey-multi-choice,13,91415,0,5c3471a13ce2c80001115cf0,67ce4cdac9e27ae798d3f54f,67ce5dab8591bcaae26ae890,0,"{""Q0"":""none of these""}",mouth,category_organization
67ce5e65aac2aea29b2869e2,5149,survey-multi-choice,14,96568,0,5c3471a13ce2c80001115cf0,67ce4cdac9e27ae798d3f54f,67ce5dab8591bcaae26ae890,0,"{""Q0"":""material""}",ice cream,category_organization
67ce5e65aac2aea29b2869e4,4002,survey-multi-choice,15,100575,0,5c3471a13ce2c80001115cf0,67ce4cdac9e27ae798d3f54f,67ce5dab8591bcaae26ae890,0,"{""Q0"":""none of these""}",toy (object),category_organization
67ce5e65aac2aea29b2869e6,5201,survey-multi-choice,16,105777,0,5c3471a13ce2c80001115cf0,67ce4cdac9e27ae798d3f54f,67ce5dab8591bcaae26ae890,0,"{""Q0"":""none of these""}",goose,category_organization
67ce5e66aac2aea29b2869e8,3144,survey-multi-choice,17,108923,0,5c3471a13ce2c80001115cf0,67ce4cdac9e27ae798d3f54f,67ce5dab8591bcaae26ae890,0,"{""Q0"":""none of these""}",tiger,category_organization
67ce5e66aac2aea29b2869ea,1813,survey-multi-choice,19,113681,0,5c3471a13ce2c80001115cf0,67ce4cdac9e27ae798d3f54f,67ce5dab8591bcaae26ae890,0,"{""Q0"":""material""}",toe,category_organization
67ce5e66aac2aea29b2869ec,2939,survey-multi-choice,18,111864,0,5c3471a13ce2c80001115cf0,67ce4cdac9e27ae798d3f54f,67ce5dab8591bcaae26ae890,0,"{""Q0"":""material""}",finger,category_organization
67ce5e66aac2aea29b2869ee,3207,survey-multi-choice,20,116890,0,5c3471a13ce2c80001115cf0,67ce4cdac9e27ae798d3f54f,67ce5dab8591bcaae26ae890,0,"{""Q0"":""shape""}",bathtub,category_organization
67ce5e66aac2aea29b2869f0,4091,survey-multi-choice,21,120983,0,5c3471a13ce2c80001115cf0,67ce4cdac9e27ae798d3f54f,67ce5dab8591bcaae26ae890,0,"{""Q0"":""none of these""}",eyebrow,category_organization
67ce5e66aac2aea29b2869f2,2116,survey-multi-choice,22,123102,0,5c3471a13ce2c80001115cf0,67ce4cdac9e27ae798d3f54f,67ce5dab8591bcaae26ae890,0,"{""Q0"":""material""}",paper,category_organization
67ce5e66aac2aea29b2869f4,2388,survey-multi-choice,23,125494,0,5c3471a13ce2c80001115cf0,67ce4cdac9e27ae798d3f54f,67ce5dab8591bcaae26ae890,0,"{""Q0"":""shape""}",coat,category_organization
67ce5e66aac2aea29b2869f6,5450,survey-multi-choice,24,130945,0,5c3471a13ce2c80001115cf0,67ce4cdac9e27ae798d3f54f,67ce5dab8591bcaae26ae890,0,"{""Q0"":""material""}",finger,category_organization
67ce5e66aac2aea29b2869f8,6511,survey-multi-choice,25,137458,0,5c3471a13ce2c80001115cf0,67ce4cdac9e27ae798d3f54f,67ce5dab8591bcaae26ae890,0,"{""Q0"":""none of these""}",cracker,category_organization
67ce5e66aac2aea29b2869fa,2570,survey-multi-choice,26,140030,0,5c3471a13ce2c80001115cf0,67ce4cdac9e27ae798d3f54f,67ce5dab8591bcaae26ae890,0,"{""Q0"":""material""}",rice,category_organization
67ce5e66aac2aea29b2869fc,2224,survey-multi-choice,27,142256,0,5c3471a13ce2c80001115cf0,67ce4cdac9e27ae798d3f54f,67ce5dab8591bcaae26ae890,0,"{""Q0"":""none of these""}",store,category_organization
67ce5e66aac2aea29b2869fe,2289,survey-multi-choice,28,144548,0,5c3471a13ce2c80001115cf0,67ce4cdac9e27ae798d3f54f,67ce5dab8591bcaae26ae890,0,"{""Q0"":""material""}",pumpkin,category_organization
67ce5e66aac2aea29b286a00,2010,survey-multi-choice,29,146563,0,5c3471a13ce2c80001115cf0,67ce4cdac9e27ae798d3f54f,67ce5dab8591bcaae26ae890,0,"{""Q0"":""material""}",french fries,category_organization
67ce5e66aac2aea29b286a02,4110,survey-multi-choice,30,150676,0,5c3471a13ce2c80001115cf0,67ce4cdac9e27ae798d3f54f,67ce5dab8591bcaae26ae890,0,"{""Q0"":""shape""}",swing (object),category_organization
67ce5e66aac2aea29b286a04,1993,survey-multi-choice,31,152671,0,5c3471a13ce2c80001115cf0,67ce4cdac9e27ae798d3f54f,67ce5dab8591bcaae26ae890,0,"{""Q0"":""color""}",lavender,attention_category
67ce5e66aac2aea29b286a06,3614,html-button-response,32,156287,0,5c3471a13ce2c80001115cf0,67ce4cdac9e27ae798d3f54f,67ce5dab8591bcaae26ae890,0,0,,
67ce5ea7aac2aea29b286a08,5907,instructions,0,5908,0,657632a302676ad9ef985cf1,67ce4cdac9e27ae798d3f54f,67ce5db7f230bf00bd5e9c18,0,,,
67ce5ea7aac2aea29b286a0a,3211,instructions,1,9119,0,657632a302676ad9ef985cf1,67ce4cdac9e27ae798d3f54f,67ce5db7f230bf00bd5e9c18,0,,,
67ce5ea7aac2aea29b286a0c,28259,html-button-response,2,37381,0,657632a302676ad9ef985cf1,67ce4cdac9e27ae798d3f54f,67ce5db7f230bf00bd5e9c18,0,0,,
67ce5ea7aac2aea29b286a0e,2973,html-button-response,3,40356,0,657632a302676ad9ef985cf1,67ce4cdac9e27ae798d3f54f,67ce5db7f230bf00bd5e9c18,0,0,,
67ce5ea7aac2aea29b286a10,8612,survey-multi-choice,4,48970,0,657632a302676ad9ef985cf1,67ce4cdac9e27ae798d3f54f,67ce5db7f230bf00bd5e9c18,0,"{""Q0"":""shape""}",square,practice_category
67ce5ea7aac2aea29b286a12,1450,html-button-response,5,50421,0,657632a302676ad9ef985cf1,67ce4cdac9e27ae798d3f54f,67ce5db7f230bf00bd5e9c18,0,0,,
67ce5ea7aac2aea29b286a14,5165,survey-multi-choice,6,55588,0,657632a302676ad9ef985cf1,67ce4cdac9e27ae798d3f54f,67ce5db7f230bf00bd5e9c18,0,"{""Q0"":""color""}",red,practice_category
67ce5ea7aac2aea29b286a16,954,html-button-response,7,56543,0,657632a302676ad9ef985cf1,67ce4cdac9e27ae798d3f54f,67ce5db7f230bf00bd5e9c18,0,0,,
67ce5ea7aac2aea29b286a18,5555,survey-multi-choice,8,62099,0,657632a302676ad9ef985cf1,67ce4cdac9e27ae798d3f54f,67ce5db7f230bf00bd5e9c18,0,"{""Q0"":""material""}",wooden,practice_category
67ce5ea7aac2aea29b286a1a,992,html-button-response,9,63092,0,657632a302676ad9ef985cf1,67ce4cdac9e27ae798d3f54f,67ce5db7f230bf00bd5e9c18,0,0,,
67ce5ea7aac2aea29b286a1c,2967,html-button-response,10,66061,0,657632a302676ad9ef985cf1,67ce4cdac9e27ae798d3f54f,67ce5db7f230bf00bd5e9c18,0,0,,
67ce5ea7aac2aea29b286a1e,9517,survey-multi-choice,11,75579,0,657632a302676ad9ef985cf1,67ce4cdac9e27ae798d3f54f,67ce5db7f230bf00bd5e9c18,0,"{""Q0"":""none of these""}",swing (object),category_organization
67ce5ea7aac2aea29b286a20,7349,survey-multi-choice,12,82929,0,657632a302676ad9ef985cf1,67ce4cdac9e27ae798d3f54f,67ce5db7f230bf00bd5e9c18,0,"{""Q0"":""none of these""}",throat,category_organization
67ce5ea7aac2aea29b286a22,8158,survey-multi-choice,13,91089,0,657632a302676ad9ef985cf1,67ce4cdac9e27ae798d3f54f,67ce5db7f230bf00bd5e9c18,0,"{""Q0"":""none of these""}",pajamas,category_organization
67ce5ea7aac2aea29b286a24,6032,survey-multi-choice,14,97121,0,657632a302676ad9ef985cf1,67ce4cdac9e27ae798d3f54f,67ce5db7f230bf00bd5e9c18,0,"{""Q0"":""none of these""}",panda,category_organization
67ce5ea7aac2aea29b286a26,8694,survey-multi-choice,15,105817,0,657632a302676ad9ef985cf1,67ce4cdac9e27ae798d3f54f,67ce5db7f230bf00bd5e9c18,0,"{""Q0"":""none of these""}",kiwi,category_organization
67ce5ea7aac2aea29b286a28,6732,survey-multi-choice,16,112550,0,657632a302676ad9ef985cf1,67ce4cdac9e27ae798d3f54f,67ce5db7f230bf00bd5e9c18,0,"{""Q0"":""none of these""}",drawer,category_organization
67ce5ea7aac2aea29b286a2a,16545,survey-multi-choice,17,129097,0,657632a302676ad9ef985cf1,67ce4cdac9e27ae798d3f54f,67ce5db7f230bf00bd5e9c18,0,"{""Q0"":""none of these""}",bicycle,category_organization
67ce5ea7aac2aea29b286a2c,27694,survey-multi-choice,18,156792,0,657632a302676ad9ef985cf1,67ce4cdac9e27ae798d3f54f,67ce5db7f230bf00bd5e9c18,0,"{""Q0"":""shape""}",glasses,category_organization
67ce5ea7aac2aea29b286a2e,4265,survey-multi-choice,19,161059,0,657632a302676ad9ef985cf1,67ce4cdac9e27ae798d3f54f,67ce5db7f230bf00bd5e9c18,0,"{""Q0"":""none of these""}",coffee,category_organization
67ce5ea7aac2aea29b286a30,6663,survey-multi-choice,20,167723,0,657632a302676ad9ef985cf1,67ce4cdac9e27ae798d3f54f,67ce5db7f230bf00bd5e9c18,0,"{""Q0"":""none of these""}",raspberry,category_organization
67ce5ea7aac2aea29b286a32,6250,survey-multi-choice,21,173974,0,657632a302676ad9ef985cf1,67ce4cdac9e27ae798d3f54f,67ce5db7f230bf00bd5e9c18,0,"{""Q0"":""none of these""}",fish (animal),category_organization
67ce5ea7aac2aea29b286a34,9816,survey-multi-choice,22,183791,0,657632a302676ad9ef985cf1,67ce4cdac9e27ae798d3f54f,67ce5db7f230bf00bd5e9c18,0,"{""Q0"":""material""}",wall,category_organization
67ce5ea7aac2aea29b286a36,3298,survey-multi-choice,23,187091,0,657632a302676ad9ef985cf1,67ce4cdac9e27ae798d3f54f,67ce5db7f230bf00bd5e9c18,0,"{""Q0"":""none of these""}",finger,category_organization
67ce5ea7aac2aea29b286a38,4472,survey-multi-choice,24,191564,0,657632a302676ad9ef985cf1,67ce4cdac9e27ae798d3f54f,67ce5db7f230bf00bd5e9c18,0,"{""Q0"":""shape""}",pie,category_organization
67ce5ea7aac2aea29b286a3a,4308,survey-multi-choice,25,195873,0,657632a302676ad9ef985cf1,67ce4cdac9e27ae798d3f54f,67ce5db7f230bf00bd5e9c18,0,"{""Q0"":""color""}",orange (food),category_organization
67ce5ea7aac2aea29b286a3c,5431,survey-multi-choice,26,201305,0,657632a302676ad9ef985cf1,67ce4cdac9e27ae798d3f54f,67ce5db7f230bf00bd5e9c18,0,"{""Q0"":""none of these""}",bird,category_organization
67ce5ea7aac2aea29b286a3e,3429,survey-multi-choice,27,204736,0,657632a302676ad9ef985cf1,67ce4cdac9e27ae798d3f54f,67ce5db7f230bf00bd5e9c18,0,"{""Q0"":""none of these""}",horse,category_organization
67ce5ea7aac2aea29b286a40,4953,survey-multi-choice,28,209690,0,657632a302676ad9ef985cf1,67ce4cdac9e27ae798d3f54f,67ce5db7f230bf00bd5e9c18,0,"{""Q0"":""none of these""}",juice,category_organization
67ce5ea7aac2aea29b286a42,7156,survey-multi-choice,29,216847,0,657632a302676ad9ef985cf1,67ce4cdac9e27ae798d3f54f,67ce5db7f230bf00bd5e9c18,0,"{""Q0"":""none of these""}",shower,category_organization
67ce5ea7aac2aea29b286a44,3730,survey-multi-choice,30,220578,0,657632a302676ad9ef985cf1,67ce4cdac9e27ae798d3f54f,67ce5db7f230bf00bd5e9c18,0,"{""Q0"":""none of these""}",tummy,category_organization
67ce5ea7aac2aea29b286a46,3917,survey-multi-choice,31,224497,0,657632a302676ad9ef985cf1,67ce4cdac9e27ae798d3f54f,67ce5db7f230bf00bd5e9c18,0,"{""Q0"":""color""}",lavender,attention_category
67ce5ea7aac2aea29b286a48,3058,html-button-response,32,227556,0,657632a302676ad9ef985cf1,67ce4cdac9e27ae798d3f54f,67ce5db7f230bf00bd5e9c18,0,0,,
67ce5f1faac2aea29b286a4a,3904,instructions,0,3908,0,56c4d3b98bacd7000ccf91d7,67ce4cdac9e27ae798d3f54f,67ce5e806b7de6a188fedee1,0,,,
67ce5f1faac2aea29b286a4c,24294,html-button-response,2,33224,0,56c4d3b98bacd7000ccf91d7,67ce4cdac9e27ae798d3f54f,67ce5e806b7de6a188fedee1,0,0,,
67ce5f1faac2aea29b286a4e,5015,instructions,1,8925,0,56c4d3b98bacd7000ccf91d7,67ce4cdac9e27ae798d3f54f,67ce5e806b7de6a188fedee1,0,,,
67ce5f1faac2aea29b286a50,3870,survey-multi-choice,6,54838,0,56c4d3b98bacd7000ccf91d7,67ce4cdac9e27ae798d3f54f,67ce5e806b7de6a188fedee1,0,"{""Q0"":""color""}",red,practice_category
67ce5f1faac2aea29b286a54,12034,survey-multi-choice,4,49262,0,56c4d3b98bacd7000ccf91d7,67ce4cdac9e27ae798d3f54f,67ce5e806b7de6a188fedee1,0,"{""Q0"":""shape""}",square,practice_category
67ce5f1faac2aea29b286a52,3996,html-button-response,3,37224,0,56c4d3b98bacd7000ccf91d7,67ce4cdac9e27ae798d3f54f,67ce5e806b7de6a188fedee1,0,0,,
67ce5f1faac2aea29b286a56,1697,html-button-response,5,50963,0,56c4d3b98bacd7000ccf91d7,67ce4cdac9e27ae798d3f54f,67ce5e806b7de6a188fedee1,0,0,,
67ce5f1faac2aea29b286a58,1412,html-button-response,7,56255,0,56c4d3b98bacd7000ccf91d7,67ce4cdac9e27ae798d3f54f,67ce5e806b7de6a188fedee1,0,0,,
67ce5f1faac2aea29b286a5a,4492,survey-multi-choice,8,60752,0,56c4d3b98bacd7000ccf91d7,67ce4cdac9e27ae798d3f54f,67ce5e806b7de6a188fedee1,0,"{""Q0"":""material""}",wooden,practice_category
67ce5f1faac2aea29b286a5c,1200,html-button-response,9,61958,0,56c4d3b98bacd7000ccf91d7,67ce4cdac9e27ae798d3f54f,67ce5e806b7de6a188fedee1,0,0,,
67ce5f1faac2aea29b286a5e,2504,html-button-response,10,64465,0,56c4d3b98bacd7000ccf91d7,67ce4cdac9e27ae798d3f54f,67ce5e806b7de6a188fedee1,0,0,,
67ce5f1faac2aea29b286a60,2981,survey-multi-choice,12,75899,0,56c4d3b98bacd7000ccf91d7,67ce4cdac9e27ae798d3f54f,67ce5e806b7de6a188fedee1,0,"{""Q0"":""material""}",stick,category_organization
67ce5f1faac2aea29b286a62,8445,survey-multi-choice,11,72914,0,56c4d3b98bacd7000ccf91d7,67ce4cdac9e27ae798d3f54f,67ce5e806b7de6a188fedee1,0,"{""Q0"":""shape""}",hammer,category_organization
67ce5f1faac2aea29b286a64,4361,survey-multi-choice,13,80264,0,56c4d3b98bacd7000ccf91d7,67ce4cdac9e27ae798d3f54f,67ce5e806b7de6a188fedee1,0,"{""Q0"":""material""}",dessert,category_organization
67ce5f1faac2aea29b286a66,3596,survey-multi-choice,14,83865,0,56c4d3b98bacd7000ccf91d7,67ce4cdac9e27ae798d3f54f,67ce5e806b7de6a188fedee1,0,"{""Q0"":""material""}",straw,category_organization
67ce5f1faac2aea29b286a68,5714,survey-multi-choice,15,89583,0,56c4d3b98bacd7000ccf91d7,67ce4cdac9e27ae798d3f54f,67ce5e806b7de6a188fedee1,0,"{""Q0"":""none of these""}",book,category_organization
67ce5f1faac2aea29b286a6a,3326,survey-multi-choice,16,92914,0,56c4d3b98bacd7000ccf91d7,67ce4cdac9e27ae798d3f54f,67ce5e806b7de6a188fedee1,0,"{""Q0"":""none of these""}",watering can,category_organization
67ce5f1faac2aea29b286a6c,2520,survey-multi-choice,17,95440,0,56c4d3b98bacd7000ccf91d7,67ce4cdac9e27ae798d3f54f,67ce5e806b7de6a188fedee1,0,"{""Q0"":""material""}",cracker,category_organization
67ce5f1faac2aea29b286a6e,2264,survey-multi-choice,18,97711,0,56c4d3b98bacd7000ccf91d7,67ce4cdac9e27ae798d3f54f,67ce5e806b7de6a188fedee1,0,"{""Q0"":""material""}",hot chocolate,category_organization
67ce5f1faac2aea29b286a70,2597,survey-multi-choice,20,103861,0,56c4d3b98bacd7000ccf91d7,67ce4cdac9e27ae798d3f54f,67ce5e806b7de6a188fedee1,0,"{""Q0"":""material""}",rice,category_organization
67ce5f1faac2aea29b286a72,3545,survey-multi-choice,19,101260,0,56c4d3b98bacd7000ccf91d7,67ce4cdac9e27ae798d3f54f,67ce5e806b7de6a188fedee1,0,"{""Q0"":""none of these""}",umbrella,category_organization
67ce5f1faac2aea29b286a74,5069,survey-multi-choice,21,108933,0,56c4d3b98bacd7000ccf91d7,67ce4cdac9e27ae798d3f54f,67ce5e806b7de6a188fedee1,0,"{""Q0"":""none of these""}",door,category_organization
67ce5f1faac2aea29b286a76,2340,survey-multi-choice,22,111279,0,56c4d3b98bacd7000ccf91d7,67ce4cdac9e27ae798d3f54f,67ce5e806b7de6a188fedee1,0,"{""Q0"":""material""}",tree,category_organization
67ce5f1faac2aea29b286a78,4124,survey-multi-choice,24,119071,0,56c4d3b98bacd7000ccf91d7,67ce4cdac9e27ae798d3f54f,67ce5e806b7de6a188fedee1,0,"{""Q0"":""none of these""}",song,category_organization
67ce5f1faac2aea29b286a7a,3660,survey-multi-choice,23,114944,0,56c4d3b98bacd7000ccf91d7,67ce4cdac9e27ae798d3f54f,67ce5e806b7de6a188fedee1,0,"{""Q0"":""material""}",mountain,category_organization
67ce5f1faac2aea29b286a7c,3001,survey-multi-choice,26,125054,0,56c4d3b98bacd7000ccf91d7,67ce4cdac9e27ae798d3f54f,67ce5e806b7de6a188fedee1,0,"{""Q0"":""none of these""}",bib,category_organization
67ce5f1faac2aea29b286a7e,2971,survey-multi-choice,25,122048,0,56c4d3b98bacd7000ccf91d7,67ce4cdac9e27ae798d3f54f,67ce5e806b7de6a188fedee1,0,"{""Q0"":""none of these""}",monkey,category_organization
67ce5f1faac2aea29b286a80,3196,survey-multi-choice,30,138446,0,56c4d3b98bacd7000ccf91d7,67ce4cdac9e27ae798d3f54f,67ce5e806b7de6a188fedee1,0,"{""Q0"":""material""}",chips,category_organization
67ce5f1faac2aea29b286a82,2702,survey-multi-choice,29,135246,0,56c4d3b98bacd7000ccf91d7,67ce4cdac9e27ae798d3f54f,67ce5e806b7de6a188fedee1,0,"{""Q0"":""material""}",tongue,category_organization
67ce5f1faac2aea29b286a84,4127,survey-multi-choice,28,132541,0,56c4d3b98bacd7000ccf91d7,67ce4cdac9e27ae798d3f54f,67ce5e806b7de6a188fedee1,0,"{""Q0"":""none of these""}",cloud,category_organization
67ce5f1faac2aea29b286a86,3347,survey-multi-choice,27,128408,0,56c4d3b98bacd7000ccf91d7,67ce4cdac9e27ae798d3f54f,67ce5e806b7de6a188fedee1,0,"{""Q0"":""none of these""}",school,category_organization
67ce5f1faac2aea29b286a88,2453,survey-multi-choice,31,140905,0,56c4d3b98bacd7000ccf91d7,67ce4cdac9e27ae798d3f54f,67ce5e806b7de6a188fedee1,0,"{""Q0"":""color""}",lavender,attention_category
67ce5f1faac2aea29b286a8a,2749,html-button-response,32,143661,0,56c4d3b98bacd7000ccf91d7,67ce4cdac9e27ae798d3f54f,67ce5e806b7de6a188fedee1,0,0,,
67ce5ff2aac2aea29b286a8c,46328,instructions,0,46331,0,677c2c3450d1c3936bc9904f,67ce4cdac9e27ae798d3f54f,67ce5eefb775e42e9721054b,0,,,
67ce5ff2aac2aea29b286a8e,3798,instructions,1,50131,0,677c2c3450d1c3936bc9904f,67ce4cdac9e27ae798d3f54f,67ce5eefb775e42e9721054b,0,,,
67ce5ff2aac2aea29b286a90,37483,html-button-response,2,87616,0,677c2c3450d1c3936bc9904f,67ce4cdac9e27ae798d3f54f,67ce5eefb775e42e9721054b,0,0,,
67ce5ff2aac2aea29b286a92,2905,html-button-response,3,90523,0,677c2c3450d1c3936bc9904f,67ce4cdac9e27ae798d3f54f,67ce5eefb775e42e9721054b,0,0,,
67ce5ff2aac2aea29b286a94,8950,survey-multi-choice,4,99476,0,677c2c3450d1c3936bc9904f,67ce4cdac9e27ae798d3f54f,67ce5eefb775e42e9721054b,0,"{""Q0"":""shape""}",square,practice_category
67ce5ff2aac2aea29b286a96,1330,html-button-response,5,100807,0,677c2c3450d1c3936bc9904f,67ce4cdac9e27ae798d3f54f,67ce5eefb775e42e9721054b,0,0,,
67ce5ff2aac2aea29b286a98,6673,survey-multi-choice,6,107482,0,677c2c3450d1c3936bc9904f,67ce4cdac9e27ae798d3f54f,67ce5eefb775e42e9721054b,0,"{""Q0"":""color""}",red,practice_category
67ce5ff2aac2aea29b286a9a,1508,html-button-response,7,108991,0,677c2c3450d1c3936bc9904f,67ce4cdac9e27ae798d3f54f,67ce5eefb775e42e9721054b,0,0,,
67ce5ff2aac2aea29b286a9c,3401,survey-multi-choice,8,112393,0,677c2c3450d1c3936bc9904f,67ce4cdac9e27ae798d3f54f,67ce5eefb775e42e9721054b,0,"{""Q0"":""material""}",wooden,practice_category
67ce5ff2aac2aea29b286a9e,1280,html-button-response,9,113675,0,677c2c3450d1c3936bc9904f,67ce4cdac9e27ae798d3f54f,67ce5eefb775e42e9721054b,0,0,,
67ce5ff2aac2aea29b286aa0,1607,html-button-response,10,115283,0,677c2c3450d1c3936bc9904f,67ce4cdac9e27ae798d3f54f,67ce5eefb775e42e9721054b,0,0,,
67ce5ff2aac2aea29b286aa2,5916,survey-multi-choice,11,121201,0,677c2c3450d1c3936bc9904f,67ce4cdac9e27ae798d3f54f,67ce5eefb775e42e9721054b,0,"{""Q0"":""shape""}",stairs,category_organization
67ce5ff2aac2aea29b286aa4,5177,survey-multi-choice,12,126380,0,677c2c3450d1c3936bc9904f,67ce4cdac9e27ae798d3f54f,67ce5eefb775e42e9721054b,0,"{""Q0"":""material""}",sweater,category_organization
67ce5ff2aac2aea29b286aa6,5924,survey-multi-choice,13,132306,0,677c2c3450d1c3936bc9904f,67ce4cdac9e27ae798d3f54f,67ce5eefb775e42e9721054b,0,"{""Q0"":""material""}",paper,category_organization
67ce5ff2aac2aea29b286aa8,12519,survey-multi-choice,14,144828,0,677c2c3450d1c3936bc9904f,67ce4cdac9e27ae798d3f54f,67ce5eefb775e42e9721054b,0,"{""Q0"":""none of these""}",tuna,category_organization
67ce5ff2aac2aea29b286aaa,3778,survey-multi-choice,16,154921,0,677c2c3450d1c3936bc9904f,67ce4cdac9e27ae798d3f54f,67ce5eefb775e42e9721054b,0,"{""Q0"":""material""}",ice,category_organization
67ce5ff2aac2aea29b286aac,6312,survey-multi-choice,15,151141,0,677c2c3450d1c3936bc9904f,67ce4cdac9e27ae798d3f54f,67ce5eefb775e42e9721054b,0,"{""Q0"":""shape""}",tree,category_organization
67ce5ff2aac2aea29b286aae,8913,survey-multi-choice,17,163836,0,677c2c3450d1c3936bc9904f,67ce4cdac9e27ae798d3f54f,67ce5eefb775e42e9721054b,0,"{""Q0"":""none of these""}",pajamas,category_organization
67ce5ff2aac2aea29b286ab0,8987,survey-multi-choice,18,172824,0,677c2c3450d1c3936bc9904f,67ce4cdac9e27ae798d3f54f,67ce5eefb775e42e9721054b,0,"{""Q0"":""color""}",orange (food),category_organization
67ce5ff2aac2aea29b286ab2,5287,survey-multi-choice,19,178112,0,677c2c3450d1c3936bc9904f,67ce4cdac9e27ae798d3f54f,67ce5eefb775e42e9721054b,0,"{""Q0"":""shape""}",horse,category_organization
67ce5ff2aac2aea29b286ab4,11497,survey-multi-choice,20,189614,0,677c2c3450d1c3936bc9904f,67ce4cdac9e27ae798d3f54f,67ce5eefb775e42e9721054b,0,"{""Q0"":""none of these""}",garden,category_organization
67ce5ff2aac2aea29b286ab6,3882,survey-multi-choice,21,193503,0,677c2c3450d1c3936bc9904f,67ce4cdac9e27ae798d3f54f,67ce5eefb775e42e9721054b,0,"{""Q0"":""shape""}",mountain,category_organization
67ce5ff2aac2aea29b286ab8,3345,survey-multi-choice,22,196849,0,677c2c3450d1c3936bc9904f,67ce4cdac9e27ae798d3f54f,67ce5eefb775e42e9721054b,0,"{""Q0"":""shape""}",dog,category_organization
67ce5ff2aac2aea29b286aba,6649,survey-multi-choice,23,203500,0,677c2c3450d1c3936bc9904f,67ce4cdac9e27ae798d3f54f,67ce5eefb775e42e9721054b,0,"{""Q0"":""none of these""}",toy (object),category_organization
67ce5ff2aac2aea29b286abc,3441,survey-multi-choice,24,206943,0,677c2c3450d1c3936bc9904f,67ce4cdac9e27ae798d3f54f,67ce5eefb775e42e9721054b,0,"{""Q0"":""material""}",carpet,category_organization
67ce626aaac2aea29b286abe,8969,instructions,0,8970,0,5ae4d5756735bd0001d7d383,67ce4cdac9e27ae798d3f54f,67ce61846a924953b2e4d6c5,0,,,
67ce626aaac2aea29b286ac0,5841,instructions,1,14812,0,5ae4d5756735bd0001d7d383,67ce4cdac9e27ae798d3f54f,67ce61846a924953b2e4d6c5,0,,,
67ce626aaac2aea29b286ac2,34188,html-button-response,2,49012,0,5ae4d5756735bd0001d7d383,67ce4cdac9e27ae798d3f54f,67ce61846a924953b2e4d6c5,0,0,,
67ce626aaac2aea29b286ac4,2655,html-button-response,3,51667,0,5ae4d5756735bd0001d7d383,67ce4cdac9e27ae798d3f54f,67ce61846a924953b2e4d6c5,0,0,,
67ce626aaac2aea29b286ac6,8650,survey-multi-choice,4,60318,0,5ae4d5756735bd0001d7d383,67ce4cdac9e27ae798d3f54f,67ce61846a924953b2e4d6c5,0,"{""Q0"":""shape""}",square,practice_category
67ce626aaac2aea29b286ac8,8407,survey-multi-choice,6,69870,0,5ae4d5756735bd0001d7d383,67ce4cdac9e27ae798d3f54f,67ce61846a924953b2e4d6c5,0,"{""Q0"":""color""}",red,practice_category
67ce626aaac2aea29b286aca,1143,html-button-response,5,61462,0,5ae4d5756735bd0001d7d383,67ce4cdac9e27ae798d3f54f,67ce61846a924953b2e4d6c5,0,0,,
67ce626aaac2aea29b286acc,831,html-button-response,7,70701,0,5ae4d5756735bd0001d7d383,67ce4cdac9e27ae798d3f54f,67ce61846a924953b2e4d6c5,0,0,,
67ce626daac2aea29b286ace,2171,instructions,0,2176,0,669e848e2385419617133d7b,67ce4cdac9e27ae798d3f54f,67ce61e2ec65af7541fedfb0,0,,,
67ce626daac2aea29b286ad0,2693,instructions,1,4871,0,669e848e2385419617133d7b,67ce4cdac9e27ae798d3f54f,67ce61e2ec65af7541fedfb0,0,,,
67ce626daac2aea29b286ad2,24131,html-button-response,2,29006,0,669e848e2385419617133d7b,67ce4cdac9e27ae798d3f54f,67ce61e2ec65af7541fedfb0,0,0,,
67ce626daac2aea29b286ad4,3317,html-button-response,3,32326,0,669e848e2385419617133d7b,67ce4cdac9e27ae798d3f54f,67ce61e2ec65af7541fedfb0,0,0,,
67ce626daac2aea29b286ad6,7349,survey-multi-choice,4,39679,0,669e848e2385419617133d7b,67ce4cdac9e27ae798d3f54f,67ce61e2ec65af7541fedfb0,0,"{""Q0"":""shape""}",square,practice_category
67ce626daac2aea29b286ad8,951,html-button-response,5,40632,0,669e848e2385419617133d7b,67ce4cdac9e27ae798d3f54f,67ce61e2ec65af7541fedfb0,0,0,,
67ce626daac2aea29b286ada,3080,survey-multi-choice,6,43714,0,669e848e2385419617133d7b,67ce4cdac9e27ae798d3f54f,67ce61e2ec65af7541fedfb0,0,"{""Q0"":""color""}",red,practice_category
67ce626daac2aea29b286adc,885,html-button-response,7,44601,0,669e848e2385419617133d7b,67ce4cdac9e27ae798d3f54f,67ce61e2ec65af7541fedfb0,0,0,,
67ce626daac2aea29b286ade,2531,survey-multi-choice,8,47134,0,669e848e2385419617133d7b,67ce4cdac9e27ae798d3f54f,67ce61e2ec65af7541fedfb0,0,"{""Q0"":""material""}",wooden,practice_category
67ce626daac2aea29b286ae0,969,html-button-response,9,48105,0,669e848e2385419617133d7b,67ce4cdac9e27ae798d3f54f,67ce61e2ec65af7541fedfb0,0,0,,
67ce626daac2aea29b286ae2,3235,html-button-response,10,51343,0,669e848e2385419617133d7b,67ce4cdac9e27ae798d3f54f,67ce61e2ec65af7541fedfb0,0,0,,
67ce626daac2aea29b286ae4,3636,survey-multi-choice,11,54980,0,669e848e2385419617133d7b,67ce4cdac9e27ae798d3f54f,67ce61e2ec65af7541fedfb0,0,"{""Q0"":""shape""}",vacuum,category_organization
67ce626daac2aea29b286ae6,2182,survey-multi-choice,12,57165,0,669e848e2385419617133d7b,67ce4cdac9e27ae798d3f54f,67ce61e2ec65af7541fedfb0,0,"{""Q0"":""shape""}",glove,category_organization
67ce626daac2aea29b286ae8,2406,survey-multi-choice,13,59574,0,669e848e2385419617133d7b,67ce4cdac9e27ae798d3f54f,67ce61e2ec65af7541fedfb0,0,"{""Q0"":""shape""}",doll,category_organization
67ce626daac2aea29b286aea,2069,survey-multi-choice,14,61645,0,669e848e2385419617133d7b,67ce4cdac9e27ae798d3f54f,67ce61e2ec65af7541fedfb0,0,"{""Q0"":""shape""}",armchair,category_organization
67ce626daac2aea29b286aec,5388,survey-multi-choice,15,67035,0,669e848e2385419617133d7b,67ce4cdac9e27ae798d3f54f,67ce61e2ec65af7541fedfb0,0,"{""Q0"":""none of these""}",dog,category_organization
67ce626daac2aea29b286aee,6298,survey-multi-choice,16,73336,0,669e848e2385419617133d7b,67ce4cdac9e27ae798d3f54f,67ce61e2ec65af7541fedfb0,0,"{""Q0"":""material""}",puree,category_organization
67ce626daac2aea29b286af0,2620,survey-multi-choice,17,75958,0,669e848e2385419617133d7b,67ce4cdac9e27ae798d3f54f,67ce61e2ec65af7541fedfb0,0,"{""Q0"":""material""}",potato,category_organization
67ce626daac2aea29b286af2,2167,survey-multi-choice,18,78127,0,669e848e2385419617133d7b,67ce4cdac9e27ae798d3f54f,67ce61e2ec65af7541fedfb0,0,"{""Q0"":""none of these""}",goose,category_organization
67ce626daac2aea29b286af4,7187,survey-multi-choice,19,85316,0,669e848e2385419617133d7b,67ce4cdac9e27ae798d3f54f,67ce61e2ec65af7541fedfb0,0,"{""Q0"":""shape""}",refrigerator,category_organization
67ce626daac2aea29b286af6,3102,survey-multi-choice,20,88420,0,669e848e2385419617133d7b,67ce4cdac9e27ae798d3f54f,67ce61e2ec65af7541fedfb0,0,"{""Q0"":""none of these""}",hat,category_organization
67ce626daac2aea29b286af8,3625,survey-multi-choice,21,92046,0,669e848e2385419617133d7b,67ce4cdac9e27ae798d3f54f,67ce61e2ec65af7541fedfb0,0,"{""Q0"":""none of these""}",eagle,category_organization
67ce626daac2aea29b286afa,4342,survey-multi-choice,22,96391,0,669e848e2385419617133d7b,67ce4cdac9e27ae798d3f54f,67ce61e2ec65af7541fedfb0,0,"{""Q0"":""none of these""}",beads,category_organization
67ce626daac2aea29b286afc,2463,survey-multi-choice,23,98856,0,669e848e2385419617133d7b,67ce4cdac9e27ae798d3f54f,67ce61e2ec65af7541fedfb0,0,"{""Q0"":""none of these""}",zebra,category_organization
67ce626daac2aea29b286afe,1717,survey-multi-choice,24,100575,0,669e848e2385419617133d7b,67ce4cdac9e27ae798d3f54f,67ce61e2ec65af7541fedfb0,0,"{""Q0"":""none of these""}",pig,category_organization
67ce626daac2aea29b286b02,5613,survey-multi-choice,25,106191,0,669e848e2385419617133d7b,67ce4cdac9e27ae798d3f54f,67ce61e2ec65af7541fedfb0,0,"{""Q0"":""shape""}",radiator,category_organization
67ce626daac2aea29b286b00,1809,survey-multi-choice,26,108002,0,669e848e2385419617133d7b,67ce4cdac9e27ae798d3f54f,67ce61e2ec65af7541fedfb0,0,"{""Q0"":""material""}",juice,category_organization
67ce626daac2aea29b286b04,3587,survey-multi-choice,27,111592,0,669e848e2385419617133d7b,67ce4cdac9e27ae798d3f54f,67ce61e2ec65af7541fedfb0,0,"{""Q0"":""material""}",mold,category_organization
67ce626daac2aea29b286b06,3352,survey-multi-choice,28,114945,0,669e848e2385419617133d7b,67ce4cdac9e27ae798d3f54f,67ce61e2ec65af7541fedfb0,0,"{""Q0"":""none of these""}",sidewalk,category_organization
67ce626daac2aea29b286b08,1995,survey-multi-choice,29,116942,0,669e848e2385419617133d7b,67ce4cdac9e27ae798d3f54f,67ce61e2ec65af7541fedfb0,0,"{""Q0"":""material""}",coffee,category_organization
67ce626daac2aea29b286b0a,2161,survey-multi-choice,30,119105,0,669e848e2385419617133d7b,67ce4cdac9e27ae798d3f54f,67ce61e2ec65af7541fedfb0,0,"{""Q0"":""shape""}",straw,category_organization
67ce626daac2aea29b286b0c,2904,survey-multi-choice,31,122012,0,669e848e2385419617133d7b,67ce4cdac9e27ae798d3f54f,67ce61e2ec65af7541fedfb0,0,"{""Q0"":""color""}",lavender,attention_category
67ce626daac2aea29b286b0e,3079,html-button-response,32,125094,0,669e848e2385419617133d7b,67ce4cdac9e27ae798d3f54f,67ce61e2ec65af7541fedfb0,0,0,,
67ce6281aac2aea29b286b10,8520,instructions,0,8521,0,63aebb25ef73ef3ec9b67684,67ce4cdac9e27ae798d3f54f,67ce60d88daa88598bcdbf84,0,,,
67ce6281aac2aea29b286b12,2422,instructions,1,10944,0,63aebb25ef73ef3ec9b67684,67ce4cdac9e27ae798d3f54f,67ce60d88daa88598bcdbf84,0,,,
67ce6281aac2aea29b286b14,184896,html-button-response,2,195841,0,63aebb25ef73ef3ec9b67684,67ce4cdac9e27ae798d3f54f,67ce60d88daa88598bcdbf84,0,0,,
67ce6281aac2aea29b286b16,1880,html-button-response,3,197722,0,63aebb25ef73ef3ec9b67684,67ce4cdac9e27ae798d3f54f,67ce60d88daa88598bcdbf84,0,0,,
67ce6281aac2aea29b286b18,7471,survey-multi-choice,4,205194,0,63aebb25ef73ef3ec9b67684,67ce4cdac9e27ae798d3f54f,67ce60d88daa88598bcdbf84,0,"{""Q0"":""shape""}",square,practice_category
67ce6281aac2aea29b286b1a,914,html-button-response,5,206109,0,63aebb25ef73ef3ec9b67684,67ce4cdac9e27ae798d3f54f,67ce60d88daa88598bcdbf84,0,0,,
67ce6281aac2aea29b286b1c,3169,survey-multi-choice,6,209278,0,63aebb25ef73ef3ec9b67684,67ce4cdac9e27ae798d3f54f,67ce60d88daa88598bcdbf84,0,"{""Q0"":""color""}",red,practice_category
67ce6281aac2aea29b286b1e,711,html-button-response,7,209989,0,63aebb25ef73ef3ec9b67684,67ce4cdac9e27ae798d3f54f,67ce60d88daa88598bcdbf84,0,0,,
67ce6281aac2aea29b286b20,3097,survey-multi-choice,8,213086,0,63aebb25ef73ef3ec9b67684,67ce4cdac9e27ae798d3f54f,67ce60d88daa88598bcdbf84,0,"{""Q0"":""material""}",wooden,practice_category
67ce6282aac2aea29b286b22,978,html-button-response,9,214065,0,63aebb25ef73ef3ec9b67684,67ce4cdac9e27ae798d3f54f,67ce60d88daa88598bcdbf84,0,0,,
67ce6282aac2aea29b286b24,9990,html-button-response,10,224055,0,63aebb25ef73ef3ec9b67684,67ce4cdac9e27ae798d3f54f,67ce60d88daa88598bcdbf84,0,0,,
67ce6282aac2aea29b286b26,12475,survey-multi-choice,11,236531,0,63aebb25ef73ef3ec9b67684,67ce4cdac9e27ae798d3f54f,67ce60d88daa88598bcdbf84,0,"{""Q0"":""shape""}",glove,category_organization
67ce6282aac2aea29b286b28,6973,survey-multi-choice,12,243505,0,63aebb25ef73ef3ec9b67684,67ce4cdac9e27ae798d3f54f,67ce60d88daa88598bcdbf84,0,"{""Q0"":""material""}",penguin,category_organization
67ce6282aac2aea29b286b2a,4730,survey-multi-choice,13,248235,0,63aebb25ef73ef3ec9b67684,67ce4cdac9e27ae798d3f54f,67ce60d88daa88598bcdbf84,0,"{""Q0"":""none of these""}",top,category_organization
67ce6282aac2aea29b286b2c,6594,survey-multi-choice,14,254830,0,63aebb25ef73ef3ec9b67684,67ce4cdac9e27ae798d3f54f,67ce60d88daa88598bcdbf84,0,"{""Q0"":""shape""}",hippopotamus,category_organization
67ce6282aac2aea29b286b2e,2491,survey-multi-choice,15,257321,0,63aebb25ef73ef3ec9b67684,67ce4cdac9e27ae798d3f54f,67ce60d88daa88598bcdbf84,0,"{""Q0"":""material""}",umbrella,category_organization
67ce6282aac2aea29b286b30,1768,survey-multi-choice,17,262858,0,63aebb25ef73ef3ec9b67684,67ce4cdac9e27ae798d3f54f,67ce60d88daa88598bcdbf84,0,"{""Q0"":""material""}",sheep,category_organization
67ce6282aac2aea29b286b32,3829,survey-multi-choice,18,266687,0,63aebb25ef73ef3ec9b67684,67ce4cdac9e27ae798d3f54f,67ce60d88daa88598bcdbf84,0,"{""Q0"":""shape""}",penis,category_organization
67ce6282aac2aea29b286b34,3768,survey-multi-choice,16,261090,0,63aebb25ef73ef3ec9b67684,67ce4cdac9e27ae798d3f54f,67ce60d88daa88598bcdbf84,0,"{""Q0"":""material""}",boat,category_organization
67ce6282aac2aea29b286b36,4951,survey-multi-choice,19,271639,0,63aebb25ef73ef3ec9b67684,67ce4cdac9e27ae798d3f54f,67ce60d88daa88598bcdbf84,0,"{""Q0"":""material""}",plant,category_organization
67ce6282aac2aea29b286b38,2572,survey-multi-choice,20,274211,0,63aebb25ef73ef3ec9b67684,67ce4cdac9e27ae798d3f54f,67ce60d88daa88598bcdbf84,0,"{""Q0"":""shape""}",head,category_organization
67ce6282aac2aea29b286b3a,3406,survey-multi-choice,21,277618,0,63aebb25ef73ef3ec9b67684,67ce4cdac9e27ae798d3f54f,67ce60d88daa88598bcdbf84,0,"{""Q0"":""material""}",brush (object),category_organization
67ce6282aac2aea29b286b3c,3868,survey-multi-choice,22,281487,0,63aebb25ef73ef3ec9b67684,67ce4cdac9e27ae798d3f54f,67ce60d88daa88598bcdbf84,0,"{""Q0"":""shape""}",key,category_organization
67ce6282aac2aea29b286b3e,4190,survey-multi-choice,23,285677,0,63aebb25ef73ef3ec9b67684,67ce4cdac9e27ae798d3f54f,67ce60d88daa88598bcdbf84,0,"{""Q0"":""none of these""}",kitchen,category_organization
67ce6282aac2aea29b286b40,2483,survey-multi-choice,24,288160,0,63aebb25ef73ef3ec9b67684,67ce4cdac9e27ae798d3f54f,67ce60d88daa88598bcdbf84,0,"{""Q0"":""material""}",purse,category_organization
67ce6282aac2aea29b286b42,1905,survey-multi-choice,25,290065,0,63aebb25ef73ef3ec9b67684,67ce4cdac9e27ae798d3f54f,67ce60d88daa88598bcdbf84,0,"{""Q0"":""material""}",garden,category_organization
67ce6282aac2aea29b286b44,1888,survey-multi-choice,26,291953,0,63aebb25ef73ef3ec9b67684,67ce4cdac9e27ae798d3f54f,67ce60d88daa88598bcdbf84,0,"{""Q0"":""color""}",crayon,category_organization
67ce6283aac2aea29b286b46,1929,survey-multi-choice,27,293883,0,63aebb25ef73ef3ec9b67684,67ce4cdac9e27ae798d3f54f,67ce60d88daa88598bcdbf84,0,"{""Q0"":""material""}",smoothie,category_organization
67ce6283aac2aea29b286b48,1794,survey-multi-choice,28,295677,0,63aebb25ef73ef3ec9b67684,67ce4cdac9e27ae798d3f54f,67ce60d88daa88598bcdbf84,0,"{""Q0"":""material""}",juice,category_organization
67ce6283aac2aea29b286b4a,1783,survey-multi-choice,29,297461,0,63aebb25ef73ef3ec9b67684,67ce4cdac9e27ae798d3f54f,67ce60d88daa88598bcdbf84,0,"{""Q0"":""material""}",tights,category_organization
67ce6283aac2aea29b286b4c,2220,survey-multi-choice,30,299681,0,63aebb25ef73ef3ec9b67684,67ce4cdac9e27ae798d3f54f,67ce60d88daa88598bcdbf84,0,"{""Q0"":""material""}",bench,category_organization
67ce6283aac2aea29b286b4e,3341,survey-multi-choice,31,303022,0,63aebb25ef73ef3ec9b67684,67ce4cdac9e27ae798d3f54f,67ce60d88daa88598bcdbf84,0,"{""Q0"":""color""}",lavender,attention_category
67ce6283aac2aea29b286b50,2993,html-button-response,32,306016,0,63aebb25ef73ef3ec9b67684,67ce4cdac9e27ae798d3f54f,67ce60d88daa88598bcdbf84,0,0,,
67ce631aaac2aea29b286b52,5195,instructions,0,5200,0,60f4696161736ffaef73b434,67ce4cdac9e27ae798d3f54f,67ce6248728236c95be63073,0,,,
67ce631aaac2aea29b286b54,29507,html-button-response,2,39639,0,60f4696161736ffaef73b434,67ce4cdac9e27ae798d3f54f,67ce6248728236c95be63073,0,0,,
67ce631aaac2aea29b286b56,4923,instructions,1,10125,0,60f4696161736ffaef73b434,67ce4cdac9e27ae798d3f54f,67ce6248728236c95be63073,0,,,
67ce631aaac2aea29b286b58,2218,html-button-response,3,41860,0,60f4696161736ffaef73b434,67ce4cdac9e27ae798d3f54f,67ce6248728236c95be63073,0,0,,
67ce631aaac2aea29b286b5a,7626,survey-multi-choice,4,49492,0,60f4696161736ffaef73b434,67ce4cdac9e27ae798d3f54f,67ce6248728236c95be63073,0,"{""Q0"":""shape""}",square,practice_category
67ce631aaac2aea29b286b5c,1599,html-button-response,5,51095,0,60f4696161736ffaef73b434,67ce4cdac9e27ae798d3f54f,67ce6248728236c95be63073,0,0,,
67ce631aaac2aea29b286b5e,4386,survey-multi-choice,6,55487,0,60f4696161736ffaef73b434,67ce4cdac9e27ae798d3f54f,67ce6248728236c95be63073,0,"{""Q0"":""color""}",red,practice_category
67ce631aaac2aea29b286b60,1181,html-button-response,9,62509,0,60f4696161736ffaef73b434,67ce4cdac9e27ae798d3f54f,67ce6248728236c95be63073,0,0,,
67ce631aaac2aea29b286b62,4423,survey-multi-choice,8,61325,0,60f4696161736ffaef73b434,67ce4cdac9e27ae798d3f54f,67ce6248728236c95be63073,0,"{""Q0"":""material""}",wooden,practice_category
67ce631aaac2aea29b286b64,1406,html-button-response,7,56897,0,60f4696161736ffaef73b434,67ce4cdac9e27ae798d3f54f,67ce6248728236c95be63073,0,0,,
67ce631aaac2aea29b286b66,2256,html-button-response,10,64769,0,60f4696161736ffaef73b434,67ce4cdac9e27ae798d3f54f,67ce6248728236c95be63073,0,0,,
67ce631aaac2aea29b286b68,5672,survey-multi-choice,11,70446,0,60f4696161736ffaef73b434,67ce4cdac9e27ae798d3f54f,67ce6248728236c95be63073,0,"{""Q0"":""material""}",tea,category_organization
67ce631aaac2aea29b286b6a,3872,survey-multi-choice,13,85715,0,60f4696161736ffaef73b434,67ce4cdac9e27ae798d3f54f,67ce6248728236c95be63073,0,"{""Q0"":""material""}",bread,category_organization
67ce631aaac2aea29b286b6c,11389,survey-multi-choice,12,81840,0,60f4696161736ffaef73b434,67ce4cdac9e27ae798d3f54f,67ce6248728236c95be63073,0,"{""Q0"":""none of these""}",dress (object),category_organization
67ce631aaac2aea29b286b6e,11353,survey-multi-choice,14,97073,0,60f4696161736ffaef73b434,67ce4cdac9e27ae798d3f54f,67ce6248728236c95be63073,0,"{""Q0"":""material""}",tooth,category_organization
67ce631aaac2aea29b286b70,9810,survey-multi-choice,15,106888,0,60f4696161736ffaef73b434,67ce4cdac9e27ae798d3f54f,67ce6248728236c95be63073,0,"{""Q0"":""material""}",diaper,category_organization
67ce631aaac2aea29b286b72,6453,survey-multi-choice,16,113346,0,60f4696161736ffaef73b434,67ce4cdac9e27ae798d3f54f,67ce6248728236c95be63073,0,"{""Q0"":""shape""}",high chair,category_organization
67ce631aaac2aea29b286b74,4707,survey-multi-choice,17,118059,0,60f4696161736ffaef73b434,67ce4cdac9e27ae798d3f54f,67ce6248728236c95be63073,0,"{""Q0"":""shape""}",tray,category_organization
67ce631aaac2aea29b286b76,3805,survey-multi-choice,18,121870,0,60f4696161736ffaef73b434,67ce4cdac9e27ae798d3f54f,67ce6248728236c95be63073,0,"{""Q0"":""shape""}",potty,category_organization
67ce631aaac2aea29b286b78,3882,survey-multi-choice,19,125758,0,60f4696161736ffaef73b434,67ce4cdac9e27ae798d3f54f,67ce6248728236c95be63073,0,"{""Q0"":""shape""}",fireplace,category_organization
67ce631aaac2aea29b286b7a,12957,survey-multi-choice,20,138719,0,60f4696161736ffaef73b434,67ce4cdac9e27ae798d3f54f,67ce6248728236c95be63073,0,"{""Q0"":""shape""}",underpants,category_organization
67ce631aaac2aea29b286b7c,6609,survey-multi-choice,21,145331,0,60f4696161736ffaef73b434,67ce4cdac9e27ae798d3f54f,67ce6248728236c95be63073,0,"{""Q0"":""none of these""}",monkey,category_organization
67ce631aaac2aea29b286b7e,4457,survey-multi-choice,22,149792,0,60f4696161736ffaef73b434,67ce4cdac9e27ae798d3f54f,67ce6248728236c95be63073,0,"{""Q0"":""material""}",dumpling,category_organization
67ce631aaac2aea29b286b80,6133,survey-multi-choice,23,155930,0,60f4696161736ffaef73b434,67ce4cdac9e27ae798d3f54f,67ce6248728236c95be63073,0,"{""Q0"":""shape""}",sun,category_organization
67ce631baac2aea29b286b82,4171,survey-multi-choice,24,160105,0,60f4696161736ffaef73b434,67ce4cdac9e27ae798d3f54f,67ce6248728236c95be63073,0,"{""Q0"":""shape""}",football,category_organization
67ce631baac2aea29b286b84,5044,survey-multi-choice,25,165154,0,60f4696161736ffaef73b434,67ce4cdac9e27ae798d3f54f,67ce6248728236c95be63073,0,"{""Q0"":""none of these""}",knee,category_organization
67ce631baac2aea29b286b86,3671,survey-multi-choice,26,168829,0,60f4696161736ffaef73b434,67ce4cdac9e27ae798d3f54f,67ce6248728236c95be63073,0,"{""Q0"":""material""}",chalk,category_organization
67ce631baac2aea29b286b88,3834,survey-multi-choice,27,172667,0,60f4696161736ffaef73b434,67ce4cdac9e27ae798d3f54f,67ce6248728236c95be63073,0,"{""Q0"":""shape""}",couch,category_organization
67ce631baac2aea29b286b8a,4367,survey-multi-choice,28,177038,0,60f4696161736ffaef73b434,67ce4cdac9e27ae798d3f54f,67ce6248728236c95be63073,0,"{""Q0"":""shape""}",bicycle,category_organization
67ce631baac2aea29b286b8c,6784,survey-multi-choice,29,183827,0,60f4696161736ffaef73b434,67ce4cdac9e27ae798d3f54f,67ce6248728236c95be63073,0,"{""Q0"":""none of these""}",bug,category_organization
67ce631baac2aea29b286b8e,4239,survey-multi-choice,30,188073,0,60f4696161736ffaef73b434,67ce4cdac9e27ae798d3f54f,67ce6248728236c95be63073,0,"{""Q0"":""none of these""}",story,category_organization
67ce631baac2aea29b286b90,3312,survey-multi-choice,31,191389,0,60f4696161736ffaef73b434,67ce4cdac9e27ae798d3f54f,67ce6248728236c95be63073,0,"{""Q0"":""color""}",lavender,attention_category
67ce631baac2aea29b286b92,4188,html-button-response,32,195581,0,60f4696161736ffaef73b434,67ce4cdac9e27ae798d3f54f,67ce6248728236c95be63073,0,0,,
67ce6390aac2aea29b286b94,8944,instructions,0,8945,0,6314d97aa02af651ea1a9591,67ce4cdac9e27ae798d3f54f,67ce62fb3c7a86fc18fa2d6f,0,,,
67ce6390aac2aea29b286b96,1264,html-button-response,3,31261,0,6314d97aa02af651ea1a9591,67ce4cdac9e27ae798d3f54f,67ce62fb3c7a86fc18fa2d6f,0,0,,
67ce6390aac2aea29b286b98,671,html-button-response,5,35360,0,6314d97aa02af651ea1a9591,67ce4cdac9e27ae798d3f54f,67ce62fb3c7a86fc18fa2d6f,0,0,,
67ce6390aac2aea29b286b9a,18449,html-button-response,2,29996,0,6314d97aa02af651ea1a9591,67ce4cdac9e27ae798d3f54f,67ce62fb3c7a86fc18fa2d6f,0,0,,
67ce6390aac2aea29b286b9c,2600,instructions,1,11545,0,6314d97aa02af651ea1a9591,67ce4cdac9e27ae798d3f54f,67ce62fb3c7a86fc18fa2d6f,0,,,
67ce6390aac2aea29b286b9e,3105,survey-multi-choice,6,38466,0,6314d97aa02af651ea1a9591,67ce4cdac9e27ae798d3f54f,67ce62fb3c7a86fc18fa2d6f,0,"{""Q0"":""color""}",red,practice_category
67ce6390aac2aea29b286ba0,3426,survey-multi-choice,4,34688,0,6314d97aa02af651ea1a9591,67ce4cdac9e27ae798d3f54f,67ce62fb3c7a86fc18fa2d6f,0,"{""Q0"":""shape""}",square,practice_category
67ce6390aac2aea29b286ba2,1384,html-button-response,7,39851,0,6314d97aa02af651ea1a9591,67ce4cdac9e27ae798d3f54f,67ce62fb3c7a86fc18fa2d6f,0,0,,
67ce6390aac2aea29b286ba4,7651,survey-multi-choice,8,47503,0,6314d97aa02af651ea1a9591,67ce4cdac9e27ae798d3f54f,67ce62fb3c7a86fc18fa2d6f,0,"{""Q0"":""material""}",wooden,practice_category
67ce6390aac2aea29b286ba6,9466,html-button-response,9,56970,0,6314d97aa02af651ea1a9591,67ce4cdac9e27ae798d3f54f,67ce62fb3c7a86fc18fa2d6f,0,0,,
67ce6390aac2aea29b286ba8,1886,html-button-response,10,58857,0,6314d97aa02af651ea1a9591,67ce4cdac9e27ae798d3f54f,67ce62fb3c7a86fc18fa2d6f,0,0,,
67ce6390aac2aea29b286baa,3157,survey-multi-choice,11,62015,0,6314d97aa02af651ea1a9591,67ce4cdac9e27ae798d3f54f,67ce62fb3c7a86fc18fa2d6f,0,"{""Q0"":""shape""}",bottle,category_organization
67ce6390aac2aea29b286bac,4521,survey-multi-choice,12,66537,0,6314d97aa02af651ea1a9591,67ce4cdac9e27ae798d3f54f,67ce62fb3c7a86fc18fa2d6f,0,"{""Q0"":""none of these""}",lamb,category_organization
67ce6390aac2aea29b286bae,3433,survey-multi-choice,13,69971,0,6314d97aa02af651ea1a9591,67ce4cdac9e27ae798d3f54f,67ce62fb3c7a86fc18fa2d6f,0,"{""Q0"":""shape""}",knife,category_organization
67ce6390aac2aea29b286bb0,4327,survey-multi-choice,14,74299,0,6314d97aa02af651ea1a9591,67ce4cdac9e27ae798d3f54f,67ce62fb3c7a86fc18fa2d6f,0,"{""Q0"":""shape""}",chips,category_organization
67ce6390aac2aea29b286bb2,2888,survey-multi-choice,15,77188,0,6314d97aa02af651ea1a9591,67ce4cdac9e27ae798d3f54f,67ce62fb3c7a86fc18fa2d6f,0,"{""Q0"":""none of these""}",jacket,category_organization
67ce6390aac2aea29b286bb4,2997,survey-multi-choice,16,80185,0,6314d97aa02af651ea1a9591,67ce4cdac9e27ae798d3f54f,67ce62fb3c7a86fc18fa2d6f,0,"{""Q0"":""material""}",glasses,category_organization
67ce6390aac2aea29b286bb6,2545,survey-multi-choice,17,82730,0,6314d97aa02af651ea1a9591,67ce4cdac9e27ae798d3f54f,67ce62fb3c7a86fc18fa2d6f,0,"{""Q0"":""material""}",hair,category_organization
67ce6390aac2aea29b286bb8,6202,survey-multi-choice,18,88933,0,6314d97aa02af651ea1a9591,67ce4cdac9e27ae798d3f54f,67ce62fb3c7a86fc18fa2d6f,0,"{""Q0"":""shape""}",waves,category_organization
67ce6390aac2aea29b286bba,4567,survey-multi-choice,19,93501,0,6314d97aa02af651ea1a9591,67ce4cdac9e27ae798d3f54f,67ce62fb3c7a86fc18fa2d6f,0,"{""Q0"":""shape""}",chin,category_organization
67ce6390aac2aea29b286bbc,1543,survey-multi-choice,21,97233,0,6314d97aa02af651ea1a9591,67ce4cdac9e27ae798d3f54f,67ce62fb3c7a86fc18fa2d6f,0,"{""Q0"":""none of these""}",blouse,category_organization
67ce6390aac2aea29b286bbe,2187,survey-multi-choice,20,95689,0,6314d97aa02af651ea1a9591,67ce4cdac9e27ae798d3f54f,67ce62fb3c7a86fc18fa2d6f,0,"{""Q0"":""none of these""}",kitchen,category_organization
