_id,rt,trial_type,trial_index,time_elapsed,internal_node_id,subject,study_id,session_id,__v,response,theword,block
67dfae24aac2aea29b286f62,4238,instructions,0,4239,0,65edfc7d2199a9b6fcab161b,67ddb44d013654f31f2c3dff,67dfad41fdf65d6304d16df5,0,,,
67dfae24aac2aea29b286f64,5445,instructions,1,9686,0,65edfc7d2199a9b6fcab161b,67ddb44d013654f31f2c3dff,67dfad41fdf65d6304d16df5,0,,,
67dfae24aac2aea29b286f66,11246,html-button-response,2,20935,0,65edfc7d2199a9b6fcab161b,67ddb44d013654f31f2c3dff,67dfad41fdf65d6304d16df5,0,0,,
67dfae24aac2aea29b286f68,5829,html-button-response,3,26766,0,65edfc7d2199a9b6fcab161b,67ddb44d013654f31f2c3dff,67dfad41fdf65d6304d16df5,0,0,,
67dfae24aac2aea29b286f6a,9143,html-button-response,4,35909,0,65edfc7d2199a9b6fcab161b,67ddb44d013654f31f2c3dff,67dfad41fdf65d6304d16df5,0,0,,
67dfae24aac2aea29b286f6c,5359,html-button-response,6,43437,0,65edfc7d2199a9b6fcab161b,67ddb44d013654f31f2c3dff,67dfad41fdf65d6304d16df5,0,0,,
67dfae24aac2aea29b286f6e,2167,html-button-response,5,38077,0,65edfc7d2199a9b6fcab161b,67ddb44d013654f31f2c3dff,67dfad41fdf65d6304d16df5,0,0,,
67dfae24aac2aea29b286f70,10622,survey-multi-choice,7,54062,0,65edfc7d2199a9b6fcab161b,67ddb44d013654f31f2c3dff,67dfad41fdf65d6304d16df5,0,"{""Q0"":""none of these""}",happiness,practice_category
67dfae24aac2aea29b286f72,2229,html-button-response,8,56293,0,65edfc7d2199a9b6fcab161b,67ddb44d013654f31f2c3dff,67dfad41fdf65d6304d16df5,0,0,,
67dfae24aac2aea29b286f74,4695,survey-multi-choice,9,60990,0,65edfc7d2199a9b6fcab161b,67ddb44d013654f31f2c3dff,67dfad41fdf65d6304d16df5,0,"{""Q0"":""shape""}",square,practice_category
67dfae24aac2aea29b286f76,1294,html-button-response,10,62286,0,65edfc7d2199a9b6fcab161b,67ddb44d013654f31f2c3dff,67dfad41fdf65d6304d16df5,0,0,,
67dfae24aac2aea29b286f78,2758,html-button-response,12,79470,0,65edfc7d2199a9b6fcab161b,67ddb44d013654f31f2c3dff,67dfad41fdf65d6304d16df5,0,0,,
67dfae24aac2aea29b286f7a,14423,survey-multi-choice,11,76710,0,65edfc7d2199a9b6fcab161b,67ddb44d013654f31f2c3dff,67dfad41fdf65d6304d16df5,0,"{""Q0"":""color""}",red,practice_category
67dfae24aac2aea29b286f7c,10247,survey-multi-choice,13,89718,0,65edfc7d2199a9b6fcab161b,67ddb44d013654f31f2c3dff,67dfad41fdf65d6304d16df5,0,"{""Q0"":""material""}",pottery,practice_category
67dfae24aac2aea29b286f7e,5830,survey-multi-choice,16,98846,0,65edfc7d2199a9b6fcab161b,67ddb44d013654f31f2c3dff,67dfad41fdf65d6304d16df5,0,"{""Q0"":""material""}",sauce,category_organization
67dfae24aac2aea29b286f80,1382,html-button-response,14,91102,0,65edfc7d2199a9b6fcab161b,67ddb44d013654f31f2c3dff,67dfad41fdf65d6304d16df5,0,0,,
67dfae24aac2aea29b286f82,1911,html-button-response,15,93014,0,65edfc7d2199a9b6fcab161b,67ddb44d013654f31f2c3dff,67dfad41fdf65d6304d16df5,0,0,,
67dfae24aac2aea29b286f84,9309,survey-multi-choice,17,108158,0,65edfc7d2199a9b6fcab161b,67ddb44d013654f31f2c3dff,67dfad41fdf65d6304d16df5,0,"{""Q0"":""shape""}",mouth,category_organization
67dfae24aac2aea29b286f86,3543,survey-multi-choice,18,111702,0,65edfc7d2199a9b6fcab161b,67ddb44d013654f31f2c3dff,67dfad41fdf65d6304d16df5,0,"{""Q0"":""none of these""}",story,category_organization
67dfae24aac2aea29b286f88,5095,survey-multi-choice,19,116798,0,65edfc7d2199a9b6fcab161b,67ddb44d013654f31f2c3dff,67dfad41fdf65d6304d16df5,0,"{""Q0"":""shape""}",trolley,category_organization
67dfae24aac2aea29b286f8a,2791,survey-multi-choice,20,119590,0,65edfc7d2199a9b6fcab161b,67ddb44d013654f31f2c3dff,67dfad41fdf65d6304d16df5,0,"{""Q0"":""shape""}",motorcycle,category_organization
67dfae24aac2aea29b286f8c,5182,survey-multi-choice,23,134414,0,65edfc7d2199a9b6fcab161b,67ddb44d013654f31f2c3dff,67dfad41fdf65d6304d16df5,0,"{""Q0"":""shape""}",kite,category_organization
67dfae24aac2aea29b286f8e,5999,survey-multi-choice,21,125590,0,65edfc7d2199a9b6fcab161b,67ddb44d013654f31f2c3dff,67dfad41fdf65d6304d16df5,0,"{""Q0"":""shape""}",peacock,category_organization
67dfae24aac2aea29b286f90,3638,survey-multi-choice,22,129230,0,65edfc7d2199a9b6fcab161b,67ddb44d013654f31f2c3dff,67dfad41fdf65d6304d16df5,0,"{""Q0"":""shape""}",nose,category_organization
67dfae24aac2aea29b286f92,6310,survey-multi-choice,24,140726,0,65edfc7d2199a9b6fcab161b,67ddb44d013654f31f2c3dff,67dfad41fdf65d6304d16df5,0,"{""Q0"":""shape""}",pigeon,category_organization
67dfae24aac2aea29b286f94,4239,survey-multi-choice,25,144966,0,65edfc7d2199a9b6fcab161b,67ddb44d013654f31f2c3dff,67dfad41fdf65d6304d16df5,0,"{""Q0"":""shape""}",wallet,category_organization
67dfae35aac2aea29b286f96,4654,instructions,0,4657,0,67dde02482375af55f0a0a50,67ddb44d013654f31f2c3dff,67dfad38da1bf4391e54e003,0,,,
67dfae35aac2aea29b286f98,1329,instructions,1,5987,0,67dde02482375af55f0a0a50,67ddb44d013654f31f2c3dff,67dfad38da1bf4391e54e003,0,,,
67dfae35aac2aea29b286f9a,1045,html-button-response,2,7036,0,67dde02482375af55f0a0a50,67ddb44d013654f31f2c3dff,67dfad38da1bf4391e54e003,0,0,,
67dfae35aac2aea29b286f9c,4827,html-button-response,3,11864,0,67dde02482375af55f0a0a50,67ddb44d013654f31f2c3dff,67dfad38da1bf4391e54e003,0,0,,
67dfae36aac2aea29b286f9e,1558,html-button-response,5,16268,0,67dde02482375af55f0a0a50,67ddb44d013654f31f2c3dff,67dfad38da1bf4391e54e003,0,0,,
67dfae36aac2aea29b286fa0,2843,html-button-response,4,14709,0,67dde02482375af55f0a0a50,67ddb44d013654f31f2c3dff,67dfad38da1bf4391e54e003,0,0,,
67dfae36aac2aea29b286fa2,1141,html-button-response,6,17410,0,67dde02482375af55f0a0a50,67ddb44d013654f31f2c3dff,67dfad38da1bf4391e54e003,0,0,,
67dfae36aac2aea29b286fa4,3227,html-button-response,8,33307,0,67dde02482375af55f0a0a50,67ddb44d013654f31f2c3dff,67dfad38da1bf4391e54e003,0,0,,
67dfae36aac2aea29b286fa6,11892,survey-multi-choice,9,45201,0,67dde02482375af55f0a0a50,67ddb44d013654f31f2c3dff,67dfad38da1bf4391e54e003,0,"{""Q0"":""material""}",pottery,practice_category
67dfae36aac2aea29b286fa8,12665,survey-multi-choice,7,30078,0,67dde02482375af55f0a0a50,67ddb44d013654f31f2c3dff,67dfad38da1bf4391e54e003,0,"{""Q0"":""shape""}",square,practice_category
67dfae36aac2aea29b286faa,1202,html-button-response,10,46404,0,67dde02482375af55f0a0a50,67ddb44d013654f31f2c3dff,67dfad38da1bf4391e54e003,0,0,,
67dfae36aac2aea29b286fac,19057,survey-multi-choice,11,65462,0,67dde02482375af55f0a0a50,67ddb44d013654f31f2c3dff,67dfad38da1bf4391e54e003,0,"{""Q0"":""none of these""}",happiness,practice_category
67dfae36aac2aea29b286fae,1975,html-button-response,12,67439,0,67dde02482375af55f0a0a50,67ddb44d013654f31f2c3dff,67dfad38da1bf4391e54e003,0,0,,
67dfae36aac2aea29b286fb0,8106,survey-multi-choice,13,75547,0,67dde02482375af55f0a0a50,67ddb44d013654f31f2c3dff,67dfad38da1bf4391e54e003,0,"{""Q0"":""color""}",red,practice_category
67dfae36aac2aea29b286fb2,1092,html-button-response,14,76640,0,67dde02482375af55f0a0a50,67ddb44d013654f31f2c3dff,67dfad38da1bf4391e54e003,0,0,,
67dfae36aac2aea29b286fb4,1867,html-button-response,15,78508,0,67dde02482375af55f0a0a50,67ddb44d013654f31f2c3dff,67dfad38da1bf4391e54e003,0,0,,
67dfae36aac2aea29b286fb6,14551,survey-multi-choice,16,93060,0,67dde02482375af55f0a0a50,67ddb44d013654f31f2c3dff,67dfad38da1bf4391e54e003,0,"{""Q0"":""none of these""}",ice,category_organization
67dfae36aac2aea29b286fb8,10114,survey-multi-choice,17,103176,0,67dde02482375af55f0a0a50,67ddb44d013654f31f2c3dff,67dfad38da1bf4391e54e003,0,"{""Q0"":""none of these""}",ear,category_organization
67dfae37aac2aea29b286fba,6429,survey-multi-choice,18,109606,0,67dde02482375af55f0a0a50,67ddb44d013654f31f2c3dff,67dfad38da1bf4391e54e003,0,"{""Q0"":""material""}",scarf,category_organization
67dfae37aac2aea29b286fbc,4126,survey-multi-choice,19,113734,0,67dde02482375af55f0a0a50,67ddb44d013654f31f2c3dff,67dfad38da1bf4391e54e003,0,"{""Q0"":""material""}",coat,category_organization
67dfae37aac2aea29b286fbe,4465,survey-multi-choice,20,118201,0,67dde02482375af55f0a0a50,67ddb44d013654f31f2c3dff,67dfad38da1bf4391e54e003,0,"{""Q0"":""material""}",glue (object),category_organization
67dfae37aac2aea29b286fc0,4095,survey-multi-choice,21,122298,0,67dde02482375af55f0a0a50,67ddb44d013654f31f2c3dff,67dfad38da1bf4391e54e003,0,"{""Q0"":""shape""}",sneaker,category_organization
67dfae37aac2aea29b286fc2,8610,survey-multi-choice,22,130910,0,67dde02482375af55f0a0a50,67ddb44d013654f31f2c3dff,67dfad38da1bf4391e54e003,0,"{""Q0"":""none of these""}",ice cream,category_organization
67dfae37aac2aea29b286fc4,3497,survey-multi-choice,23,134408,0,67dde02482375af55f0a0a50,67ddb44d013654f31f2c3dff,67dfad38da1bf4391e54e003,0,"{""Q0"":""none of these""}",donut,category_organization
67dfae37aac2aea29b286fc6,3994,survey-multi-choice,24,138403,0,67dde02482375af55f0a0a50,67ddb44d013654f31f2c3dff,67dfad38da1bf4391e54e003,0,"{""Q0"":""none of these""}",plum,category_organization
67dfae37aac2aea29b286fc8,3773,survey-multi-choice,25,142177,0,67dde02482375af55f0a0a50,67ddb44d013654f31f2c3dff,67dfad38da1bf4391e54e003,0,"{""Q0"":""none of these""}",potato,category_organization
67dfae37aac2aea29b286fca,3560,survey-multi-choice,26,145739,0,67dde02482375af55f0a0a50,67ddb44d013654f31f2c3dff,67dfad38da1bf4391e54e003,0,"{""Q0"":""none of these""}",porridge,category_organization
67dfae37aac2aea29b286fcc,4214,survey-multi-choice,27,149954,0,67dde02482375af55f0a0a50,67ddb44d013654f31f2c3dff,67dfad38da1bf4391e54e003,0,"{""Q0"":""none of these""}",toilet paper,category_organization
67dfae37aac2aea29b286fce,3623,survey-multi-choice,29,156393,0,67dde02482375af55f0a0a50,67ddb44d013654f31f2c3dff,67dfad38da1bf4391e54e003,0,"{""Q0"":""material""}",hammer,category_organization
67dfae37aac2aea29b286fd0,2812,survey-multi-choice,28,152768,0,67dde02482375af55f0a0a50,67ddb44d013654f31f2c3dff,67dfad38da1bf4391e54e003,0,"{""Q0"":""none of these""}",fox,category_organization
67dfae37aac2aea29b286fd2,6146,survey-multi-choice,32,170806,0,67dde02482375af55f0a0a50,67ddb44d013654f31f2c3dff,67dfad38da1bf4391e54e003,0,"{""Q0"":""material""}",kitchen,category_organization
67dfae37aac2aea29b286fd4,3947,survey-multi-choice,30,160341,0,67dde02482375af55f0a0a50,67ddb44d013654f31f2c3dff,67dfad38da1bf4391e54e003,0,"{""Q0"":""none of these""}",wolf,category_organization
67dfae37aac2aea29b286fd6,4316,survey-multi-choice,31,164658,0,67dde02482375af55f0a0a50,67ddb44d013654f31f2c3dff,67dfad38da1bf4391e54e003,0,"{""Q0"":""material""}",diaper,category_organization
67dfae37aac2aea29b286fd8,3285,survey-multi-choice,33,174092,0,67dde02482375af55f0a0a50,67ddb44d013654f31f2c3dff,67dfad38da1bf4391e54e003,0,"{""Q0"":""none of these""}",lavender,category_organization
67dfae37aac2aea29b286fda,3481,survey-multi-choice,34,177575,0,67dde02482375af55f0a0a50,67ddb44d013654f31f2c3dff,67dfad38da1bf4391e54e003,0,"{""Q0"":""material""}",washing machine,category_organization
67dfae37aac2aea29b286fdc,29609,survey-multi-choice,35,207185,0,67dde02482375af55f0a0a50,67ddb44d013654f31f2c3dff,67dfad38da1bf4391e54e003,0,"{""Q0"":""none of these""}",duck,category_organization
67dfae38aac2aea29b286fde,10650,survey-multi-choice,36,217837,0,67dde02482375af55f0a0a50,67ddb44d013654f31f2c3dff,67dfad38da1bf4391e54e003,0,"{""Q0"":""material""}",towel,category_organization
67dfae38aac2aea29b286fe0,1549,html-button-response,37,219388,0,67dde02482375af55f0a0a50,67ddb44d013654f31f2c3dff,67dfad38da1bf4391e54e003,0,0,,
67dfaeb2aac2aea29b286fe2,5492,instructions,0,5494,0,663a7f5414aa4bc429ac40bd,67ddb44d013654f31f2c3dff,67dfaddc6cc62d4c228f6fbb,0,,,
67dfaeb2aac2aea29b286fe4,1239,instructions,1,6733,0,663a7f5414aa4bc429ac40bd,67ddb44d013654f31f2c3dff,67dfaddc6cc62d4c228f6fbb,0,,,
67dfaeb2aac2aea29b286fe6,8375,html-button-response,2,15109,0,663a7f5414aa4bc429ac40bd,67ddb44d013654f31f2c3dff,67dfaddc6cc62d4c228f6fbb,0,0,,
67dfaeb2aac2aea29b286fe8,8503,html-button-response,3,23613,0,663a7f5414aa4bc429ac40bd,67ddb44d013654f31f2c3dff,67dfaddc6cc62d4c228f6fbb,0,0,,
67dfaeb2aac2aea29b286fea,14383,html-button-response,4,37997,0,663a7f5414aa4bc429ac40bd,67ddb44d013654f31f2c3dff,67dfaddc6cc62d4c228f6fbb,0,0,,
67dfaeb2aac2aea29b286fec,4015,html-button-response,6,44133,0,663a7f5414aa4bc429ac40bd,67ddb44d013654f31f2c3dff,67dfaddc6cc62d4c228f6fbb,0,0,,
67dfaeb2aac2aea29b286fee,2119,html-button-response,5,40117,0,663a7f5414aa4bc429ac40bd,67ddb44d013654f31f2c3dff,67dfaddc6cc62d4c228f6fbb,0,0,,
67dfaeb2aac2aea29b286ff0,5951,survey-multi-choice,11,73414,0,663a7f5414aa4bc429ac40bd,67ddb44d013654f31f2c3dff,67dfaddc6cc62d4c228f6fbb,0,"{""Q0"":""color""}",red,practice_category
67dfaeb2aac2aea29b286ff2,10431,survey-multi-choice,7,54566,0,663a7f5414aa4bc429ac40bd,67ddb44d013654f31f2c3dff,67dfaddc6cc62d4c228f6fbb,0,"{""Q0"":""none of these""}",happiness,practice_category
67dfaeb2aac2aea29b286ff4,1470,html-button-response,8,56037,0,663a7f5414aa4bc429ac40bd,67ddb44d013654f31f2c3dff,67dfaddc6cc62d4c228f6fbb,0,0,,
67dfaeb2aac2aea29b286ff6,10367,survey-multi-choice,9,66406,0,663a7f5414aa4bc429ac40bd,67ddb44d013654f31f2c3dff,67dfaddc6cc62d4c228f6fbb,0,"{""Q0"":""material""}",pottery,practice_category
67dfaeb2aac2aea29b286ff8,1055,html-button-response,10,67461,0,663a7f5414aa4bc429ac40bd,67ddb44d013654f31f2c3dff,67dfaddc6cc62d4c228f6fbb,0,0,,
67dfaeb2aac2aea29b286ffa,799,html-button-response,12,74213,0,663a7f5414aa4bc429ac40bd,67ddb44d013654f31f2c3dff,67dfaddc6cc62d4c228f6fbb,0,0,,
67dfaeb2aac2aea29b286ffc,3967,survey-multi-choice,18,96038,0,663a7f5414aa4bc429ac40bd,67ddb44d013654f31f2c3dff,67dfaddc6cc62d4c228f6fbb,0,"{""Q0"":""material""}",stove,category_organization
67dfaeb2aac2aea29b286ffe,790,html-button-response,14,81685,0,663a7f5414aa4bc429ac40bd,67ddb44d013654f31f2c3dff,67dfaddc6cc62d4c228f6fbb,0,0,,
67dfaeb2aac2aea29b287000,6680,survey-multi-choice,13,80894,0,663a7f5414aa4bc429ac40bd,67ddb44d013654f31f2c3dff,67dfaddc6cc62d4c228f6fbb,0,"{""Q0"":""shape""}",square,practice_category
67dfaeb2aac2aea29b287002,4271,survey-multi-choice,17,92070,0,663a7f5414aa4bc429ac40bd,67ddb44d013654f31f2c3dff,67dfaddc6cc62d4c228f6fbb,0,"{""Q0"":""material""}",bread,category_organization
67dfaeb2aac2aea29b287004,5015,survey-multi-choice,16,87798,0,663a7f5414aa4bc429ac40bd,67ddb44d013654f31f2c3dff,67dfaddc6cc62d4c228f6fbb,0,"{""Q0"":""shape""}",truck,category_organization
67dfaeb2aac2aea29b287006,1096,html-button-response,15,82782,0,663a7f5414aa4bc429ac40bd,67ddb44d013654f31f2c3dff,67dfaddc6cc62d4c228f6fbb,0,0,,
67dfaeb2aac2aea29b287008,3616,survey-multi-choice,22,109982,0,663a7f5414aa4bc429ac40bd,67ddb44d013654f31f2c3dff,67dfaddc6cc62d4c228f6fbb,0,"{""Q0"":""shape""}",sand,category_organization
67dfaeb2aac2aea29b28700a,3287,survey-multi-choice,20,102414,0,663a7f5414aa4bc429ac40bd,67ddb44d013654f31f2c3dff,67dfaddc6cc62d4c228f6fbb,0,"{""Q0"":""none of these""}",panda,category_organization
67dfaeb2aac2aea29b28700c,3951,survey-multi-choice,21,106366,0,663a7f5414aa4bc429ac40bd,67ddb44d013654f31f2c3dff,67dfaddc6cc62d4c228f6fbb,0,"{""Q0"":""shape""}",sand,category_organization
67dfaeb2aac2aea29b28700e,3087,survey-multi-choice,19,99126,0,663a7f5414aa4bc429ac40bd,67ddb44d013654f31f2c3dff,67dfaddc6cc62d4c228f6fbb,0,"{""Q0"":""material""}",wheel,category_organization
67dfaeb2aac2aea29b287010,4071,survey-multi-choice,23,114054,0,663a7f5414aa4bc429ac40bd,67ddb44d013654f31f2c3dff,67dfaddc6cc62d4c228f6fbb,0,"{""Q0"":""material""}",wallet,category_organization
67dfaeb2aac2aea29b287012,2664,survey-multi-choice,24,116718,0,663a7f5414aa4bc429ac40bd,67ddb44d013654f31f2c3dff,67dfaddc6cc62d4c228f6fbb,0,"{""Q0"":""none of these""}",turkey,category_organization
67dfaeb2aac2aea29b287014,7447,survey-multi-choice,25,124166,0,663a7f5414aa4bc429ac40bd,67ddb44d013654f31f2c3dff,67dfaddc6cc62d4c228f6fbb,0,"{""Q0"":""none of these""}",potty,category_organization
67dfaeb2aac2aea29b287016,3543,survey-multi-choice,27,134030,0,663a7f5414aa4bc429ac40bd,67ddb44d013654f31f2c3dff,67dfaddc6cc62d4c228f6fbb,0,"{""Q0"":""material""}",penny,category_organization
67dfaeb2aac2aea29b287018,3831,survey-multi-choice,28,137862,0,663a7f5414aa4bc429ac40bd,67ddb44d013654f31f2c3dff,67dfaddc6cc62d4c228f6fbb,0,"{""Q0"":""none of these""}",chick,category_organization
67dfaeb2aac2aea29b28701a,1463,survey-multi-choice,30,143014,0,663a7f5414aa4bc429ac40bd,67ddb44d013654f31f2c3dff,67dfaddc6cc62d4c228f6fbb,0,"{""Q0"":""material""}",vacuum,category_organization
67dfaeb3aac2aea29b28701c,3687,survey-multi-choice,29,141550,0,663a7f5414aa4bc429ac40bd,67ddb44d013654f31f2c3dff,67dfaddc6cc62d4c228f6fbb,0,"{""Q0"":""material""}",wallet,category_organization
67dfaeb3aac2aea29b28701e,6319,survey-multi-choice,26,130486,0,663a7f5414aa4bc429ac40bd,67ddb44d013654f31f2c3dff,67dfaddc6cc62d4c228f6fbb,0,"{""Q0"":""none of these""}",fish (animal),category_organization
67dfaeb3aac2aea29b287020,3183,survey-multi-choice,31,146198,0,663a7f5414aa4bc429ac40bd,67ddb44d013654f31f2c3dff,67dfaddc6cc62d4c228f6fbb,0,"{""Q0"":""none of these""}",turtle,category_organization
67dfaeb3aac2aea29b287022,3607,survey-multi-choice,34,156862,0,663a7f5414aa4bc429ac40bd,67ddb44d013654f31f2c3dff,67dfaddc6cc62d4c228f6fbb,0,"{""Q0"":""none of these""}",bee,category_organization
67dfaeb3aac2aea29b287024,2359,survey-multi-choice,33,153254,0,663a7f5414aa4bc429ac40bd,67ddb44d013654f31f2c3dff,67dfaddc6cc62d4c228f6fbb,0,"{""Q0"":""none of these""}",lavender,category_organization
67dfaeb3aac2aea29b287026,4695,survey-multi-choice,32,150894,0,663a7f5414aa4bc429ac40bd,67ddb44d013654f31f2c3dff,67dfaddc6cc62d4c228f6fbb,0,"{""Q0"":""material""}",ladder,category_organization
67dfaeb3aac2aea29b287028,3183,survey-multi-choice,36,163526,0,663a7f5414aa4bc429ac40bd,67ddb44d013654f31f2c3dff,67dfaddc6cc62d4c228f6fbb,0,"{""Q0"":""color""}",flag,category_organization
67dfaeb3aac2aea29b28702a,3479,survey-multi-choice,35,160342,0,663a7f5414aa4bc429ac40bd,67ddb44d013654f31f2c3dff,67dfaddc6cc62d4c228f6fbb,0,"{""Q0"":""none of these""}",hand,category_organization
67dfaeb3aac2aea29b28702c,2183,html-button-response,37,165710,0,663a7f5414aa4bc429ac40bd,67ddb44d013654f31f2c3dff,67dfaddc6cc62d4c228f6fbb,0,0,,
67dfaf30aac2aea29b28702e,11191,instructions,1,20163,0,67ddb4811470d166582743c4,67ddb44d013654f31f2c3dff,67dfad31c406da9f288fa903,0,,,
67dfaf30aac2aea29b287030,16358,html-button-response,2,36523,0,67ddb4811470d166582743c4,67ddb44d013654f31f2c3dff,67dfad31c406da9f288fa903,0,0,,
67dfaf31aac2aea29b287032,12402,html-button-response,3,48927,0,67ddb4811470d166582743c4,67ddb44d013654f31f2c3dff,67dfad31c406da9f288fa903,0,0,,
67dfaf31aac2aea29b287034,15589,html-button-response,4,64518,0,67ddb4811470d166582743c4,67ddb44d013654f31f2c3dff,67dfad31c406da9f288fa903,0,0,,
67dfaf31aac2aea29b287036,4766,html-button-response,5,69286,0,67ddb4811470d166582743c4,67ddb44d013654f31f2c3dff,67dfad31c406da9f288fa903,0,0,,
67dfaf31aac2aea29b287038,38440,survey-multi-choice,7,115853,0,67ddb4811470d166582743c4,67ddb44d013654f31f2c3dff,67dfad31c406da9f288fa903,0,"{""Q0"":""shape""}",square,practice_category
67dfaf31aac2aea29b28703a,8123,html-button-response,6,77411,0,67ddb4811470d166582743c4,67ddb44d013654f31f2c3dff,67dfad31c406da9f288fa903,0,0,,
67dfaf31aac2aea29b28703c,3031,html-button-response,8,118885,0,67ddb4811470d166582743c4,67ddb44d013654f31f2c3dff,67dfad31c406da9f288fa903,0,0,,
67dfaf31aac2aea29b28703e,24166,survey-multi-choice,9,143052,0,67ddb4811470d166582743c4,67ddb44d013654f31f2c3dff,67dfad31c406da9f288fa903,0,"{""Q0"":""material""}",pottery,practice_category
67dfaf32aac2aea29b287040,6377,html-button-response,10,149431,0,67ddb4811470d166582743c4,67ddb44d013654f31f2c3dff,67dfad31c406da9f288fa903,0,0,,
67dfaf32aac2aea29b287042,8663,survey-multi-choice,11,158095,0,67ddb4811470d166582743c4,67ddb44d013654f31f2c3dff,67dfad31c406da9f288fa903,0,"{""Q0"":""color""}",red,practice_category
67dfaf32aac2aea29b287044,1267,html-button-response,12,159363,0,67ddb4811470d166582743c4,67ddb44d013654f31f2c3dff,67dfad31c406da9f288fa903,0,0,,
67dfaf32aac2aea29b287046,15024,survey-multi-choice,13,174388,0,67ddb4811470d166582743c4,67ddb44d013654f31f2c3dff,67dfad31c406da9f288fa903,0,"{""Q0"":""none of these""}",happiness,practice_category
67dfaf32aac2aea29b287048,2817,html-button-response,14,177207,0,67ddb4811470d166582743c4,67ddb44d013654f31f2c3dff,67dfad31c406da9f288fa903,0,0,,
67dfaf32aac2aea29b28704a,6409,html-button-response,15,183617,0,67ddb4811470d166582743c4,67ddb44d013654f31f2c3dff,67dfad31c406da9f288fa903,0,0,,
67dfaf32aac2aea29b28704c,7746,survey-multi-choice,17,211196,0,67ddb4811470d166582743c4,67ddb44d013654f31f2c3dff,67dfad31c406da9f288fa903,0,"{""Q0"":""material""}",cot,category_organization
67dfaf32aac2aea29b28704e,19829,survey-multi-choice,16,203448,0,67ddb4811470d166582743c4,67ddb44d013654f31f2c3dff,67dfad31c406da9f288fa903,0,"{""Q0"":""shape""}",foot,category_organization
67dfaf32aac2aea29b287050,12526,survey-multi-choice,18,223723,0,67ddb4811470d166582743c4,67ddb44d013654f31f2c3dff,67dfad31c406da9f288fa903,0,"{""Q0"":""material""}",dust,category_organization
67dfaf32aac2aea29b287052,6743,survey-multi-choice,19,230468,0,67ddb4811470d166582743c4,67ddb44d013654f31f2c3dff,67dfad31c406da9f288fa903,0,"{""Q0"":""color""}",photo,category_organization
67dfaf32aac2aea29b287054,12379,survey-multi-choice,20,242848,0,67ddb4811470d166582743c4,67ddb44d013654f31f2c3dff,67dfad31c406da9f288fa903,0,"{""Q0"":""color""}",ice cream,category_organization
67dfaf32aac2aea29b287056,22043,survey-multi-choice,21,264892,0,67ddb4811470d166582743c4,67ddb44d013654f31f2c3dff,67dfad31c406da9f288fa903,0,"{""Q0"":""color""}",rice,category_organization
67dfaf32aac2aea29b287058,10635,survey-multi-choice,22,275529,0,67ddb4811470d166582743c4,67ddb44d013654f31f2c3dff,67dfad31c406da9f288fa903,0,"{""Q0"":""color""}",pig,category_organization
67dfaf32aac2aea29b28705a,52472,survey-multi-choice,23,328002,0,67ddb4811470d166582743c4,67ddb44d013654f31f2c3dff,67dfad31c406da9f288fa903,0,"{""Q0"":""shape""}",pasta,category_organization
67dfaf32aac2aea29b28705c,12733,survey-multi-choice,24,340737,0,67ddb4811470d166582743c4,67ddb44d013654f31f2c3dff,67dfad31c406da9f288fa903,0,"{""Q0"":""color""}",sauce,category_organization
67dfaf32aac2aea29b28705e,4335,survey-multi-choice,25,345073,0,67ddb4811470d166582743c4,67ddb44d013654f31f2c3dff,67dfad31c406da9f288fa903,0,"{""Q0"":""color""}",yogurt,category_organization
67dfaf32aac2aea29b287060,6949,survey-multi-choice,26,352023,0,67ddb4811470d166582743c4,67ddb44d013654f31f2c3dff,67dfad31c406da9f288fa903,0,"{""Q0"":""color""}",dog,category_organization
67dfaf32aac2aea29b287062,7895,survey-multi-choice,27,359919,0,67ddb4811470d166582743c4,67ddb44d013654f31f2c3dff,67dfad31c406da9f288fa903,0,"{""Q0"":""color""}",giraffe,category_organization
67dfaf33aac2aea29b287064,9085,survey-multi-choice,28,369006,0,67ddb4811470d166582743c4,67ddb44d013654f31f2c3dff,67dfad31c406da9f288fa903,0,"{""Q0"":""color""}",ice cream,category_organization
67dfaf33aac2aea29b287066,9155,survey-multi-choice,29,378162,0,67ddb4811470d166582743c4,67ddb44d013654f31f2c3dff,67dfad31c406da9f288fa903,0,"{""Q0"":""material""}",chicken (food),category_organization
67dfaf33aac2aea29b287068,11426,survey-multi-choice,30,389589,0,67ddb4811470d166582743c4,67ddb44d013654f31f2c3dff,67dfad31c406da9f288fa903,0,"{""Q0"":""color""}",fish (animal),category_organization
67dfaf33aac2aea29b28706a,5505,survey-multi-choice,31,395096,0,67ddb4811470d166582743c4,67ddb44d013654f31f2c3dff,67dfad31c406da9f288fa903,0,"{""Q0"":""none of these""}",lavender,category_organization
67dfaf33aac2aea29b28706c,7541,survey-multi-choice,32,402638,0,67ddb4811470d166582743c4,67ddb44d013654f31f2c3dff,67dfad31c406da9f288fa903,0,"{""Q0"":""material""}",underpants,category_organization
67dfaf33aac2aea29b28706e,34411,survey-multi-choice,33,437050,0,67ddb4811470d166582743c4,67ddb44d013654f31f2c3dff,67dfad31c406da9f288fa903,0,"{""Q0"":""none of these""}",palm,category_organization
67dfaf33aac2aea29b287070,10452,survey-multi-choice,34,447503,0,67ddb4811470d166582743c4,67ddb44d013654f31f2c3dff,67dfad31c406da9f288fa903,0,"{""Q0"":""color""}",newspaper,category_organization
67dfaf33aac2aea29b287072,20457,survey-multi-choice,35,467962,0,67ddb4811470d166582743c4,67ddb44d013654f31f2c3dff,67dfad31c406da9f288fa903,0,"{""Q0"":""shape""}",firetruck,category_organization
67dfaf33aac2aea29b287074,10679,survey-multi-choice,36,478642,0,67ddb4811470d166582743c4,67ddb44d013654f31f2c3dff,67dfad31c406da9f288fa903,0,"{""Q0"":""material""}",sneaker,category_organization
67dfaf33aac2aea29b287076,6619,html-button-response,37,485263,0,67ddb4811470d166582743c4,67ddb44d013654f31f2c3dff,67dfad31c406da9f288fa903,0,0,,
67dfaf33aac2aea29b287078,8966,instructions,0,8970,0,67ddb4811470d166582743c4,67ddb44d013654f31f2c3dff,67dfad31c406da9f288fa903,0,,,
67dfaf3aaac2aea29b28707a,8866,instructions,0,8869,0,6163d1b02e574c402a1fd0f9,67ddb44d013654f31f2c3dff,67dfadeb1cac1fd08c478b5c,0,,,
67dfaf3aaac2aea29b28707c,8692,instructions,1,17562,0,6163d1b02e574c402a1fd0f9,67ddb44d013654f31f2c3dff,67dfadeb1cac1fd08c478b5c,0,,,
67dfaf3aaac2aea29b28707e,15960,html-button-response,2,33524,0,6163d1b02e574c402a1fd0f9,67ddb44d013654f31f2c3dff,67dfadeb1cac1fd08c478b5c,0,0,,
67dfaf3aaac2aea29b287080,8829,html-button-response,3,42354,0,6163d1b02e574c402a1fd0f9,67ddb44d013654f31f2c3dff,67dfadeb1cac1fd08c478b5c,0,0,,
67dfaf3aaac2aea29b287082,3342,html-button-response,5,58724,0,6163d1b02e574c402a1fd0f9,67ddb44d013654f31f2c3dff,67dfadeb1cac1fd08c478b5c,0,0,,
67dfaf3aaac2aea29b287084,13025,html-button-response,4,55381,0,6163d1b02e574c402a1fd0f9,67ddb44d013654f31f2c3dff,67dfadeb1cac1fd08c478b5c,0,0,,
67dfaf3aaac2aea29b287086,5924,html-button-response,6,64649,0,6163d1b02e574c402a1fd0f9,67ddb44d013654f31f2c3dff,67dfadeb1cac1fd08c478b5c,0,0,,
67dfaf3aaac2aea29b287088,15179,survey-multi-choice,7,79832,0,6163d1b02e574c402a1fd0f9,67ddb44d013654f31f2c3dff,67dfadeb1cac1fd08c478b5c,0,"{""Q0"":""none of these""}",happiness,practice_category
67dfaf3aaac2aea29b28708a,3220,html-button-response,8,83055,0,6163d1b02e574c402a1fd0f9,67ddb44d013654f31f2c3dff,67dfadeb1cac1fd08c478b5c,0,0,,
67dfaf3aaac2aea29b28708c,8348,survey-multi-choice,9,91405,0,6163d1b02e574c402a1fd0f9,67ddb44d013654f31f2c3dff,67dfadeb1cac1fd08c478b5c,0,"{""Q0"":""shape""}",square,practice_category
67dfaf3aaac2aea29b28708e,2723,html-button-response,10,94129,0,6163d1b02e574c402a1fd0f9,67ddb44d013654f31f2c3dff,67dfadeb1cac1fd08c478b5c,0,0,,
67dfaf3aaac2aea29b287090,10959,survey-multi-choice,11,105090,0,6163d1b02e574c402a1fd0f9,67ddb44d013654f31f2c3dff,67dfadeb1cac1fd08c478b5c,0,"{""Q0"":""material""}",pottery,practice_category
67dfaf3aaac2aea29b287092,2315,html-button-response,12,107406,0,6163d1b02e574c402a1fd0f9,67ddb44d013654f31f2c3dff,67dfadeb1cac1fd08c478b5c,0,0,,
67dfaf3aaac2aea29b287094,8740,survey-multi-choice,13,116147,0,6163d1b02e574c402a1fd0f9,67ddb44d013654f31f2c3dff,67dfadeb1cac1fd08c478b5c,0,"{""Q0"":""color""}",red,practice_category
67dfaf3aaac2aea29b287096,4343,html-button-response,14,120491,0,6163d1b02e574c402a1fd0f9,67ddb44d013654f31f2c3dff,67dfadeb1cac1fd08c478b5c,0,0,,
67dfaf3aaac2aea29b287098,3038,html-button-response,15,123531,0,6163d1b02e574c402a1fd0f9,67ddb44d013654f31f2c3dff,67dfadeb1cac1fd08c478b5c,0,0,,
67dfaf3aaac2aea29b28709a,8557,survey-multi-choice,16,132090,0,6163d1b02e574c402a1fd0f9,67ddb44d013654f31f2c3dff,67dfadeb1cac1fd08c478b5c,0,"{""Q0"":""none of these""}",closet,category_organization
67dfaf3aaac2aea29b28709c,9223,survey-multi-choice,17,141316,0,6163d1b02e574c402a1fd0f9,67ddb44d013654f31f2c3dff,67dfadeb1cac1fd08c478b5c,0,"{""Q0"":""none of these""}",nose,category_organization
67dfaf3aaac2aea29b28709e,23500,survey-multi-choice,18,164817,0,6163d1b02e574c402a1fd0f9,67ddb44d013654f31f2c3dff,67dfadeb1cac1fd08c478b5c,0,"{""Q0"":""material""}",ice cream,category_organization
67dfaf3aaac2aea29b2870a0,5676,survey-multi-choice,19,170494,0,6163d1b02e574c402a1fd0f9,67ddb44d013654f31f2c3dff,67dfadeb1cac1fd08c478b5c,0,"{""Q0"":""material""}",gum,category_organization
67dfaf3aaac2aea29b2870a2,5098,survey-multi-choice,20,175594,0,6163d1b02e574c402a1fd0f9,67ddb44d013654f31f2c3dff,67dfadeb1cac1fd08c478b5c,0,"{""Q0"":""material""}",towel,category_organization
67dfaf3aaac2aea29b2870a4,7873,survey-multi-choice,21,183469,0,6163d1b02e574c402a1fd0f9,67ddb44d013654f31f2c3dff,67dfadeb1cac1fd08c478b5c,0,"{""Q0"":""none of these""}",airplane,category_organization
67dfaf3aaac2aea29b2870a6,9755,survey-multi-choice,22,193226,0,6163d1b02e574c402a1fd0f9,67ddb44d013654f31f2c3dff,67dfadeb1cac1fd08c478b5c,0,"{""Q0"":""material""}",sheep,category_organization
67dfaf3aaac2aea29b2870a8,10354,survey-multi-choice,23,203581,0,6163d1b02e574c402a1fd0f9,67ddb44d013654f31f2c3dff,67dfadeb1cac1fd08c478b5c,0,"{""Q0"":""none of these""}",foot,category_organization
67dfaf3baac2aea29b2870aa,14770,survey-multi-choice,24,218353,0,6163d1b02e574c402a1fd0f9,67ddb44d013654f31f2c3dff,67dfadeb1cac1fd08c478b5c,0,"{""Q0"":""none of these""}",frog,category_organization
67dfaf3baac2aea29b2870ac,4942,survey-multi-choice,25,223296,0,6163d1b02e574c402a1fd0f9,67ddb44d013654f31f2c3dff,67dfadeb1cac1fd08c478b5c,0,"{""Q0"":""material""}",sweet potato,category_organization
67dfaf3baac2aea29b2870ae,5367,survey-multi-choice,26,228665,0,6163d1b02e574c402a1fd0f9,67ddb44d013654f31f2c3dff,67dfadeb1cac1fd08c478b5c,0,"{""Q0"":""none of these""}",frog,category_organization
67dfaf3baac2aea29b2870b0,9135,survey-multi-choice,27,237801,0,6163d1b02e574c402a1fd0f9,67ddb44d013654f31f2c3dff,67dfadeb1cac1fd08c478b5c,0,"{""Q0"":""none of these""}",bathroom,category_organization
67dfaf3baac2aea29b2870b2,4961,survey-multi-choice,28,242764,0,6163d1b02e574c402a1fd0f9,67ddb44d013654f31f2c3dff,67dfadeb1cac1fd08c478b5c,0,"{""Q0"":""material""}",snow,category_organization
67dfaf3baac2aea29b2870b4,7631,survey-multi-choice,29,250396,0,6163d1b02e574c402a1fd0f9,67ddb44d013654f31f2c3dff,67dfadeb1cac1fd08c478b5c,0,"{""Q0"":""none of these""}",card,category_organization
67dfaf3baac2aea29b2870b6,4371,survey-multi-choice,30,254768,0,6163d1b02e574c402a1fd0f9,67ddb44d013654f31f2c3dff,67dfadeb1cac1fd08c478b5c,0,"{""Q0"":""material""}",meat,category_organization
67dfaf3baac2aea29b2870b8,6788,survey-multi-choice,31,261558,0,6163d1b02e574c402a1fd0f9,67ddb44d013654f31f2c3dff,67dfadeb1cac1fd08c478b5c,0,"{""Q0"":""none of these""}",tongue,category_organization
67dfaf3baac2aea29b2870ba,8132,survey-multi-choice,32,269691,0,6163d1b02e574c402a1fd0f9,67ddb44d013654f31f2c3dff,67dfadeb1cac1fd08c478b5c,0,"{""Q0"":""none of these""}",wallet,category_organization
67dfaf3baac2aea29b2870bc,4377,survey-multi-choice,33,274069,0,6163d1b02e574c402a1fd0f9,67ddb44d013654f31f2c3dff,67dfadeb1cac1fd08c478b5c,0,"{""Q0"":""material""}",ham,category_organization
67dfaf3baac2aea29b2870be,20267,survey-multi-choice,34,294337,0,6163d1b02e574c402a1fd0f9,67ddb44d013654f31f2c3dff,67dfadeb1cac1fd08c478b5c,0,"{""Q0"":""shape""}",bird,category_organization
67dfaf3baac2aea29b2870c0,3816,survey-multi-choice,35,298154,0,6163d1b02e574c402a1fd0f9,67ddb44d013654f31f2c3dff,67dfadeb1cac1fd08c478b5c,0,"{""Q0"":""none of these""}",lavender,category_organization
67dfaf3baac2aea29b2870c2,8816,survey-multi-choice,36,306972,0,6163d1b02e574c402a1fd0f9,67ddb44d013654f31f2c3dff,67dfadeb1cac1fd08c478b5c,0,"{""Q0"":""none of these""}",snowman,category_organization
67dfaf3baac2aea29b2870c4,6418,html-button-response,37,313391,0,6163d1b02e574c402a1fd0f9,67ddb44d013654f31f2c3dff,67dfadeb1cac1fd08c478b5c,0,0,,
67dfaf82aac2aea29b2870c6,15507,instructions,0,15513,0,67da872654b63e67fde992f3,67ddb44d013654f31f2c3dff,67dfad8c6014ad9eaa8866b1,0,,,
67dfaf83aac2aea29b2870c8,22109,instructions,1,37624,0,67da872654b63e67fde992f3,67ddb44d013654f31f2c3dff,67dfad8c6014ad9eaa8866b1,0,,,
67dfaf83aac2aea29b2870ca,29636,html-button-response,2,67266,0,67da872654b63e67fde992f3,67ddb44d013654f31f2c3dff,67dfad8c6014ad9eaa8866b1,0,0,,
67dfaf83aac2aea29b2870cc,18681,html-button-response,3,85949,0,67da872654b63e67fde992f3,67ddb44d013654f31f2c3dff,67dfad8c6014ad9eaa8866b1,0,0,,
67dfaf83aac2aea29b2870ce,38348,html-button-response,4,124299,0,67da872654b63e67fde992f3,67ddb44d013654f31f2c3dff,67dfad8c6014ad9eaa8866b1,0,0,,
67dfaf83aac2aea29b2870d0,12752,html-button-response,5,137053,0,67da872654b63e67fde992f3,67ddb44d013654f31f2c3dff,67dfad8c6014ad9eaa8866b1,0,0,,
67dfaf83aac2aea29b2870d2,29826,html-button-response,6,166881,0,67da872654b63e67fde992f3,67ddb44d013654f31f2c3dff,67dfad8c6014ad9eaa8866b1,0,0,,
67dfaf83aac2aea29b2870d4,16667,survey-multi-choice,7,183553,0,67da872654b63e67fde992f3,67ddb44d013654f31f2c3dff,67dfad8c6014ad9eaa8866b1,0,"{""Q0"":""none of these""}",happiness,practice_category
67dfaf83aac2aea29b2870d6,7706,html-button-response,8,191262,0,67da872654b63e67fde992f3,67ddb44d013654f31f2c3dff,67dfad8c6014ad9eaa8866b1,0,0,,
67dfaf84aac2aea29b2870d8,23624,survey-multi-choice,9,214889,0,67da872654b63e67fde992f3,67ddb44d013654f31f2c3dff,67dfad8c6014ad9eaa8866b1,0,"{""Q0"":""material""}",pottery,practice_category
67dfaf84aac2aea29b2870da,1749,html-button-response,10,216640,0,67da872654b63e67fde992f3,67ddb44d013654f31f2c3dff,67dfad8c6014ad9eaa8866b1,0,0,,
67dfaf84aac2aea29b2870dc,9303,survey-multi-choice,11,225945,0,67da872654b63e67fde992f3,67ddb44d013654f31f2c3dff,67dfad8c6014ad9eaa8866b1,0,"{""Q0"":""color""}",red,practice_category
67dfaf84aac2aea29b2870de,1078,html-button-response,12,227025,0,67da872654b63e67fde992f3,67ddb44d013654f31f2c3dff,67dfad8c6014ad9eaa8866b1,0,0,,
67dfaf84aac2aea29b2870e0,10792,survey-multi-choice,13,237820,0,67da872654b63e67fde992f3,67ddb44d013654f31f2c3dff,67dfad8c6014ad9eaa8866b1,0,"{""Q0"":""shape""}",square,practice_category
67dfaf84aac2aea29b2870e2,1139,html-button-response,14,238961,0,67da872654b63e67fde992f3,67ddb44d013654f31f2c3dff,67dfad8c6014ad9eaa8866b1,0,0,,
67dfaf84aac2aea29b2870e4,1992,html-button-response,15,240954,0,67da872654b63e67fde992f3,67ddb44d013654f31f2c3dff,67dfad8c6014ad9eaa8866b1,0,0,,
67dfaf84aac2aea29b2870e6,7673,survey-multi-choice,16,248630,0,67da872654b63e67fde992f3,67ddb44d013654f31f2c3dff,67dfad8c6014ad9eaa8866b1,0,"{""Q0"":""shape""}",cup,category_organization
67dfaf84aac2aea29b2870e8,20170,survey-multi-choice,18,278633,0,67da872654b63e67fde992f3,67ddb44d013654f31f2c3dff,67dfad8c6014ad9eaa8866b1,0,"{""Q0"":""none of these""}",lavender,category_organization
67dfaf84aac2aea29b2870ea,29035,survey-multi-choice,19,307671,0,67da872654b63e67fde992f3,67ddb44d013654f31f2c3dff,67dfad8c6014ad9eaa8866b1,0,"{""Q0"":""none of these""}",foot,category_organization
67dfaf84aac2aea29b2870ec,9826,survey-multi-choice,17,258460,0,67da872654b63e67fde992f3,67ddb44d013654f31f2c3dff,67dfad8c6014ad9eaa8866b1,0,"{""Q0"":""material""}",candy,category_organization
67dfaf84aac2aea29b2870ee,6020,survey-multi-choice,20,313694,0,67da872654b63e67fde992f3,67ddb44d013654f31f2c3dff,67dfad8c6014ad9eaa8866b1,0,"{""Q0"":""none of these""}",neighborhood,category_organization
67dfaf84aac2aea29b2870f0,10216,survey-multi-choice,21,323913,0,67da872654b63e67fde992f3,67ddb44d013654f31f2c3dff,67dfad8c6014ad9eaa8866b1,0,"{""Q0"":""none of these""}",eggplant,category_organization
67dfaf84aac2aea29b2870f2,5054,survey-multi-choice,22,328969,0,67da872654b63e67fde992f3,67ddb44d013654f31f2c3dff,67dfad8c6014ad9eaa8866b1,0,"{""Q0"":""none of these""}",meat,category_organization
67dfaf84aac2aea29b2870f4,9167,survey-multi-choice,23,338140,0,67da872654b63e67fde992f3,67ddb44d013654f31f2c3dff,67dfad8c6014ad9eaa8866b1,0,"{""Q0"":""none of these""}",banana,category_organization
67dfaf84aac2aea29b2870f6,6120,survey-multi-choice,25,349315,0,67da872654b63e67fde992f3,67ddb44d013654f31f2c3dff,67dfad8c6014ad9eaa8866b1,0,"{""Q0"":""none of these""}",shower,category_organization
67dfaf84aac2aea29b2870f8,5049,survey-multi-choice,24,343192,0,67da872654b63e67fde992f3,67ddb44d013654f31f2c3dff,67dfad8c6014ad9eaa8866b1,0,"{""Q0"":""material""}",skirt,category_organization
67dfaf84aac2aea29b2870fa,4901,survey-multi-choice,26,354218,0,67da872654b63e67fde992f3,67ddb44d013654f31f2c3dff,67dfad8c6014ad9eaa8866b1,0,"{""Q0"":""none of these""}",dinosaur,category_organization
67dfaf85aac2aea29b2870fc,12778,survey-multi-choice,27,367000,0,67da872654b63e67fde992f3,67ddb44d013654f31f2c3dff,67dfad8c6014ad9eaa8866b1,0,"{""Q0"":""none of these""}",coat hanger,category_organization
67dfaf85aac2aea29b2870fe,5230,survey-multi-choice,28,372233,0,67da872654b63e67fde992f3,67ddb44d013654f31f2c3dff,67dfad8c6014ad9eaa8866b1,0,"{""Q0"":""none of these""}",chicken (food),category_organization
67dfaf85aac2aea29b287100,5114,survey-multi-choice,29,377349,0,67da872654b63e67fde992f3,67ddb44d013654f31f2c3dff,67dfad8c6014ad9eaa8866b1,0,"{""Q0"":""none of these""}",face,category_organization
67dfaf85aac2aea29b287102,5938,survey-multi-choice,31,387564,0,67da872654b63e67fde992f3,67ddb44d013654f31f2c3dff,67dfad8c6014ad9eaa8866b1,0,"{""Q0"":""none of these""}",ant,category_organization
67dfaf85aac2aea29b287104,5654,survey-multi-choice,32,393221,0,67da872654b63e67fde992f3,67ddb44d013654f31f2c3dff,67dfad8c6014ad9eaa8866b1,0,"{""Q0"":""none of these""}",remote control,category_organization
67dfaf85aac2aea29b287106,4272,survey-multi-choice,30,381624,0,67da872654b63e67fde992f3,67ddb44d013654f31f2c3dff,67dfad8c6014ad9eaa8866b1,0,"{""Q0"":""none of these""}",firetruck,category_organization
67dfaf85aac2aea29b287108,5854,survey-multi-choice,33,399079,0,67da872654b63e67fde992f3,67ddb44d013654f31f2c3dff,67dfad8c6014ad9eaa8866b1,0,"{""Q0"":""none of these""}",branch,category_organization
67dfaf85aac2aea29b28710a,30291,survey-multi-choice,34,429373,0,67da872654b63e67fde992f3,67ddb44d013654f31f2c3dff,67dfad8c6014ad9eaa8866b1,0,"{""Q0"":""none of these""}",faucet,category_organization
67dfaf85aac2aea29b28710c,23431,survey-multi-choice,35,452809,0,67da872654b63e67fde992f3,67ddb44d013654f31f2c3dff,67dfad8c6014ad9eaa8866b1,0,"{""Q0"":""material""}",pacifier,category_organization
67dfaf85aac2aea29b28710e,5081,survey-multi-choice,36,457892,0,67da872654b63e67fde992f3,67ddb44d013654f31f2c3dff,67dfad8c6014ad9eaa8866b1,0,"{""Q0"":""none of these""}",ice,category_organization
67dfaf85aac2aea29b287110,1830,html-button-response,37,459726,0,67da872654b63e67fde992f3,67ddb44d013654f31f2c3dff,67dfad8c6014ad9eaa8866b1,0,0,,
67dfafa5aac2aea29b287112,2916,instructions,0,2924,0,57618e8a25224a0006d3756e,67ddb44d013654f31f2c3dff,67dfaec0fa31c86fb3502573,0,,,
67dfafa5aac2aea29b287114,11362,html-button-response,2,20493,0,57618e8a25224a0006d3756e,67ddb44d013654f31f2c3dff,67dfaec0fa31c86fb3502573,0,0,,
67dfafa5aac2aea29b287116,6203,instructions,1,9128,0,57618e8a25224a0006d3756e,67ddb44d013654f31f2c3dff,67dfaec0fa31c86fb3502573,0,,,
67dfafa5aac2aea29b287118,8321,html-button-response,3,28817,0,57618e8a25224a0006d3756e,67ddb44d013654f31f2c3dff,67dfaec0fa31c86fb3502573,0,0,,
67dfafa5aac2aea29b28711a,2558,html-button-response,5,44373,0,57618e8a25224a0006d3756e,67ddb44d013654f31f2c3dff,67dfaec0fa31c86fb3502573,0,0,,
67dfafa5aac2aea29b28711c,12993,html-button-response,4,41814,0,57618e8a25224a0006d3756e,67ddb44d013654f31f2c3dff,67dfaec0fa31c86fb3502573,0,0,,
67dfafa5aac2aea29b28711e,5971,html-button-response,6,50347,0,57618e8a25224a0006d3756e,67ddb44d013654f31f2c3dff,67dfaec0fa31c86fb3502573,0,0,,
67dfafa5aac2aea29b287120,7485,survey-multi-choice,7,57837,0,57618e8a25224a0006d3756e,67ddb44d013654f31f2c3dff,67dfaec0fa31c86fb3502573,0,"{""Q0"":""color""}",red,practice_category
67dfafa5aac2aea29b287122,1638,html-button-response,8,59515,0,57618e8a25224a0006d3756e,67ddb44d013654f31f2c3dff,67dfaec0fa31c86fb3502573,0,0,,
67dfafa5aac2aea29b287124,5180,survey-multi-choice,9,64698,0,57618e8a25224a0006d3756e,67ddb44d013654f31f2c3dff,67dfaec0fa31c86fb3502573,0,"{""Q0"":""shape""}",square,practice_category
67dfafa5aac2aea29b287126,1483,html-button-response,10,66183,0,57618e8a25224a0006d3756e,67ddb44d013654f31f2c3dff,67dfaec0fa31c86fb3502573,0,0,,
67dfafa5aac2aea29b287128,1331,html-button-response,12,74090,0,57618e8a25224a0006d3756e,67ddb44d013654f31f2c3dff,67dfaec0fa31c86fb3502573,0,0,,
67dfafa5aac2aea29b28712a,6572,survey-multi-choice,11,72757,0,57618e8a25224a0006d3756e,67ddb44d013654f31f2c3dff,67dfaec0fa31c86fb3502573,0,"{""Q0"":""none of these""}",happiness,practice_category
67dfafa6aac2aea29b28712c,6476,survey-multi-choice,13,80569,0,57618e8a25224a0006d3756e,67ddb44d013654f31f2c3dff,67dfaec0fa31c86fb3502573,0,"{""Q0"":""material""}",pottery,practice_category
67dfafa6aac2aea29b28712e,1294,html-button-response,14,81866,0,57618e8a25224a0006d3756e,67ddb44d013654f31f2c3dff,67dfaec0fa31c86fb3502573,0,0,,
67dfafa6aac2aea29b287130,2280,html-button-response,15,84148,0,57618e8a25224a0006d3756e,67ddb44d013654f31f2c3dff,67dfaec0fa31c86fb3502573,0,0,,
67dfafa6aac2aea29b287132,4580,survey-multi-choice,17,98195,0,57618e8a25224a0006d3756e,67ddb44d013654f31f2c3dff,67dfaec0fa31c86fb3502573,0,"{""Q0"":""material""}",salt,category_organization
67dfafa6aac2aea29b287134,6168,survey-multi-choice,18,104365,0,57618e8a25224a0006d3756e,67ddb44d013654f31f2c3dff,67dfaec0fa31c86fb3502573,0,"{""Q0"":""none of these""}",knee,category_organization
67dfafa6aac2aea29b287136,9461,survey-multi-choice,16,93612,0,57618e8a25224a0006d3756e,67ddb44d013654f31f2c3dff,67dfaec0fa31c86fb3502573,0,"{""Q0"":""none of these""}",blender,category_organization
67dfafe6aac2aea29b287138,23834,instructions,0,23837,0,67ddb06bc7175d8f155fe2bf,67ddb44d013654f31f2c3dff,67dfad2c9ff05c298d95ed1f,0,,,
67dfafe6aac2aea29b28713a,35334,instructions,1,59173,0,67ddb06bc7175d8f155fe2bf,67ddb44d013654f31f2c3dff,67dfad2c9ff05c298d95ed1f,0,,,
67dfafe6aac2aea29b28713c,30286,html-button-response,2,89462,0,67ddb06bc7175d8f155fe2bf,67ddb44d013654f31f2c3dff,67dfad2c9ff05c298d95ed1f,0,0,,
67dfafe7aac2aea29b28713e,20805,html-button-response,3,110268,0,67ddb06bc7175d8f155fe2bf,67ddb44d013654f31f2c3dff,67dfad2c9ff05c298d95ed1f,0,0,,
67dfafe7aac2aea29b287140,14870,html-button-response,5,176428,0,67ddb06bc7175d8f155fe2bf,67ddb44d013654f31f2c3dff,67dfad2c9ff05c298d95ed1f,0,0,,
67dfafe7aac2aea29b287142,19111,html-button-response,6,195541,0,67ddb06bc7175d8f155fe2bf,67ddb44d013654f31f2c3dff,67dfad2c9ff05c298d95ed1f,0,0,,
67dfafe7aac2aea29b287144,51288,html-button-response,4,161557,0,67ddb06bc7175d8f155fe2bf,67ddb44d013654f31f2c3dff,67dfad2c9ff05c298d95ed1f,0,0,,
67dfafe7aac2aea29b287146,32767,survey-multi-choice,7,228311,0,67ddb06bc7175d8f155fe2bf,67ddb44d013654f31f2c3dff,67dfad2c9ff05c298d95ed1f,0,"{""Q0"":""shape""}",square,practice_category
67dfafe7aac2aea29b287148,1492,html-button-response,8,229805,0,67ddb06bc7175d8f155fe2bf,67ddb44d013654f31f2c3dff,67dfad2c9ff05c298d95ed1f,0,0,,
67dfafe7aac2aea29b28714a,12870,survey-multi-choice,9,242677,0,67ddb06bc7175d8f155fe2bf,67ddb44d013654f31f2c3dff,67dfad2c9ff05c298d95ed1f,0,"{""Q0"":""material""}",pottery,practice_category
67dfafe7aac2aea29b28714c,1247,html-button-response,10,243925,0,67ddb06bc7175d8f155fe2bf,67ddb44d013654f31f2c3dff,67dfad2c9ff05c298d95ed1f,0,0,,
67dfafe8aac2aea29b28714e,11951,survey-multi-choice,11,255878,0,67ddb06bc7175d8f155fe2bf,67ddb44d013654f31f2c3dff,67dfad2c9ff05c298d95ed1f,0,"{""Q0"":""color""}",red,practice_category
67dfafe8aac2aea29b287150,1150,html-button-response,12,257029,0,67ddb06bc7175d8f155fe2bf,67ddb44d013654f31f2c3dff,67dfad2c9ff05c298d95ed1f,0,0,,
67dfafe8aac2aea29b287152,17479,survey-multi-choice,13,274510,0,67ddb06bc7175d8f155fe2bf,67ddb44d013654f31f2c3dff,67dfad2c9ff05c298d95ed1f,0,"{""Q0"":""none of these""}",happiness,practice_category
67dfafe8aac2aea29b287154,1358,html-button-response,14,275869,0,67ddb06bc7175d8f155fe2bf,67ddb44d013654f31f2c3dff,67dfad2c9ff05c298d95ed1f,0,0,,
67dfafe8aac2aea29b287156,3039,html-button-response,15,278909,0,67ddb06bc7175d8f155fe2bf,67ddb44d013654f31f2c3dff,67dfad2c9ff05c298d95ed1f,0,0,,
67dfafe8aac2aea29b287158,13655,survey-multi-choice,16,292566,0,67ddb06bc7175d8f155fe2bf,67ddb44d013654f31f2c3dff,67dfad2c9ff05c298d95ed1f,0,"{""Q0"":""shape""}",bridge,category_organization
67dfafe8aac2aea29b28715a,13366,survey-multi-choice,17,305934,0,67ddb06bc7175d8f155fe2bf,67ddb44d013654f31f2c3dff,67dfad2c9ff05c298d95ed1f,0,"{""Q0"":""shape""}",door,category_organization
67dfafe8aac2aea29b28715c,21591,survey-multi-choice,18,327526,0,67ddb06bc7175d8f155fe2bf,67ddb44d013654f31f2c3dff,67dfad2c9ff05c298d95ed1f,0,"{""Q0"":""shape""}",egg,category_organization
67dfafe8aac2aea29b28715e,11422,survey-multi-choice,19,338950,0,67ddb06bc7175d8f155fe2bf,67ddb44d013654f31f2c3dff,67dfad2c9ff05c298d95ed1f,0,"{""Q0"":""shape""}",melon,category_organization
67dfafe8aac2aea29b287160,47599,survey-multi-choice,20,386550,0,67ddb06bc7175d8f155fe2bf,67ddb44d013654f31f2c3dff,67dfad2c9ff05c298d95ed1f,0,"{""Q0"":""shape""}",airplane,category_organization
67dfafe8aac2aea29b287162,6611,instructions,0,6612,0,628f93dc168e3004adcbebb8,67ddb44d013654f31f2c3dff,67dfaf2b3482feafaee3dcfa,0,,,
67dfafe8aac2aea29b287164,4144,instructions,1,10756,0,628f93dc168e3004adcbebb8,67ddb44d013654f31f2c3dff,67dfaf2b3482feafaee3dcfa,0,,,
67dfafe8aac2aea29b287166,4529,html-button-response,3,23492,0,628f93dc168e3004adcbebb8,67ddb44d013654f31f2c3dff,67dfaf2b3482feafaee3dcfa,0,0,,
67dfafe8aac2aea29b287168,2091,html-button-response,5,42703,0,628f93dc168e3004adcbebb8,67ddb44d013654f31f2c3dff,67dfaf2b3482feafaee3dcfa,0,0,,
67dfafe8aac2aea29b28716a,17119,html-button-response,4,40611,0,628f93dc168e3004adcbebb8,67ddb44d013654f31f2c3dff,67dfaf2b3482feafaee3dcfa,0,0,,
67dfafe8aac2aea29b28716c,8205,html-button-response,2,18962,0,628f93dc168e3004adcbebb8,67ddb44d013654f31f2c3dff,67dfaf2b3482feafaee3dcfa,0,0,,
67dfafe8aac2aea29b28716e,3797,html-button-response,6,46500,0,628f93dc168e3004adcbebb8,67ddb44d013654f31f2c3dff,67dfaf2b3482feafaee3dcfa,0,0,,
67dfafe8aac2aea29b287170,11695,survey-multi-choice,21,398246,0,67ddb06bc7175d8f155fe2bf,67ddb44d013654f31f2c3dff,67dfad2c9ff05c298d95ed1f,0,"{""Q0"":""none of these""}",fly (animal),category_organization
67dfafe8aac2aea29b287172,8158,survey-multi-choice,7,54660,0,628f93dc168e3004adcbebb8,67ddb44d013654f31f2c3dff,67dfaf2b3482feafaee3dcfa,0,"{""Q0"":""color""}",red,practice_category
67dfafe8aac2aea29b287174,1999,html-button-response,8,56660,0,628f93dc168e3004adcbebb8,67ddb44d013654f31f2c3dff,67dfaf2b3482feafaee3dcfa,0,0,,
67dfafe8aac2aea29b287176,7918,survey-multi-choice,9,64579,0,628f93dc168e3004adcbebb8,67ddb44d013654f31f2c3dff,67dfaf2b3482feafaee3dcfa,0,"{""Q0"":""none of these""}",happiness,practice_category
67dfafe8aac2aea29b287178,1789,html-button-response,10,66368,0,628f93dc168e3004adcbebb8,67ddb44d013654f31f2c3dff,67dfaf2b3482feafaee3dcfa,0,0,,
67dfafe8aac2aea29b28717a,5428,survey-multi-choice,11,71797,0,628f93dc168e3004adcbebb8,67ddb44d013654f31f2c3dff,67dfaf2b3482feafaee3dcfa,0,"{""Q0"":""material""}",pottery,practice_category
67dfafe8aac2aea29b28717c,1708,html-button-response,12,73505,0,628f93dc168e3004adcbebb8,67ddb44d013654f31f2c3dff,67dfaf2b3482feafaee3dcfa,0,0,,
67dfafe8aac2aea29b28717e,3980,survey-multi-choice,13,77486,0,628f93dc168e3004adcbebb8,67ddb44d013654f31f2c3dff,67dfaf2b3482feafaee3dcfa,0,"{""Q0"":""shape""}",square,practice_category
67dfafe8aac2aea29b287180,653,html-button-response,14,78139,0,628f93dc168e3004adcbebb8,67ddb44d013654f31f2c3dff,67dfaf2b3482feafaee3dcfa,0,0,,
67dfafe8aac2aea29b287182,1614,html-button-response,15,79753,0,628f93dc168e3004adcbebb8,67ddb44d013654f31f2c3dff,67dfaf2b3482feafaee3dcfa,0,0,,
67dfafe8aac2aea29b287184,5456,survey-multi-choice,16,85210,0,628f93dc168e3004adcbebb8,67ddb44d013654f31f2c3dff,67dfaf2b3482feafaee3dcfa,0,"{""Q0"":""shape""}",pants,category_organization
67dfafe8aac2aea29b287186,3640,survey-multi-choice,17,88851,0,628f93dc168e3004adcbebb8,67ddb44d013654f31f2c3dff,67dfaf2b3482feafaee3dcfa,0,"{""Q0"":""shape""}",bicycle,category_organization
67dfafe8aac2aea29b287188,3857,survey-multi-choice,18,92708,0,628f93dc168e3004adcbebb8,67ddb44d013654f31f2c3dff,67dfaf2b3482feafaee3dcfa,0,"{""Q0"":""material""}",milk,category_organization
67dfafe8aac2aea29b28718a,6792,survey-multi-choice,19,99501,0,628f93dc168e3004adcbebb8,67ddb44d013654f31f2c3dff,67dfaf2b3482feafaee3dcfa,0,"{""Q0"":""material""}",tooth,category_organization
67dfafe8aac2aea29b28718c,20895,survey-multi-choice,22,419142,0,67ddb06bc7175d8f155fe2bf,67ddb44d013654f31f2c3dff,67dfad2c9ff05c298d95ed1f,0,"{""Q0"":""none of these""}",pig,category_organization
67dfafe8aac2aea29b28718e,5369,survey-multi-choice,20,104870,0,628f93dc168e3004adcbebb8,67ddb44d013654f31f2c3dff,67dfaf2b3482feafaee3dcfa,0,"{""Q0"":""shape""}",peas,category_organization
67dfafe8aac2aea29b287190,3488,survey-multi-choice,21,108359,0,628f93dc168e3004adcbebb8,67ddb44d013654f31f2c3dff,67dfaf2b3482feafaee3dcfa,0,"{""Q0"":""shape""}",butt,category_organization
67dfafe8aac2aea29b287194,1872,survey-multi-choice,24,119550,0,628f93dc168e3004adcbebb8,67ddb44d013654f31f2c3dff,67dfaf2b3482feafaee3dcfa,0,"{""Q0"":""none of these""}",lavender,category_organization
67dfafe8aac2aea29b287192,4455,survey-multi-choice,22,112814,0,628f93dc168e3004adcbebb8,67ddb44d013654f31f2c3dff,67dfaf2b3482feafaee3dcfa,0,"{""Q0"":""none of these""}",squirrel,category_organization
67dfafe8aac2aea29b287196,3074,survey-multi-choice,25,122624,0,628f93dc168e3004adcbebb8,67ddb44d013654f31f2c3dff,67dfaf2b3482feafaee3dcfa,0,"{""Q0"":""material""}",rice,category_organization
67dfafe8aac2aea29b287198,4862,survey-multi-choice,23,117677,0,628f93dc168e3004adcbebb8,67ddb44d013654f31f2c3dff,67dfaf2b3482feafaee3dcfa,0,"{""Q0"":""material""}",leaf,category_organization
67dfafe8aac2aea29b28719a,3051,survey-multi-choice,26,125675,0,628f93dc168e3004adcbebb8,67ddb44d013654f31f2c3dff,67dfaf2b3482feafaee3dcfa,0,"{""Q0"":""shape""}",airplane,category_organization
67dfafe8aac2aea29b28719c,4621,survey-multi-choice,27,130297,0,628f93dc168e3004adcbebb8,67ddb44d013654f31f2c3dff,67dfaf2b3482feafaee3dcfa,0,"{""Q0"":""material""}",rain,category_organization
67dfafe8aac2aea29b28719e,3609,survey-multi-choice,28,133907,0,628f93dc168e3004adcbebb8,67ddb44d013654f31f2c3dff,67dfaf2b3482feafaee3dcfa,0,"{""Q0"":""shape""}",shoulder,category_organization
67dfafe8aac2aea29b2871a0,3340,survey-multi-choice,29,137247,0,628f93dc168e3004adcbebb8,67ddb44d013654f31f2c3dff,67dfaf2b3482feafaee3dcfa,0,"{""Q0"":""none of these""}",picture,category_organization
67dfafe8aac2aea29b2871a2,2588,survey-multi-choice,31,142148,0,628f93dc168e3004adcbebb8,67ddb44d013654f31f2c3dff,67dfaf2b3482feafaee3dcfa,0,"{""Q0"":""material""}",stick,category_organization
67dfafe8aac2aea29b2871a4,2312,survey-multi-choice,30,139560,0,628f93dc168e3004adcbebb8,67ddb44d013654f31f2c3dff,67dfaf2b3482feafaee3dcfa,0,"{""Q0"":""shape""}",locomotive,category_organization
67dfafe8aac2aea29b2871a6,3261,survey-multi-choice,32,145410,0,628f93dc168e3004adcbebb8,67ddb44d013654f31f2c3dff,67dfaf2b3482feafaee3dcfa,0,"{""Q0"":""none of these""}",ear,category_organization
67dfafe8aac2aea29b2871a8,11638,survey-multi-choice,23,430782,0,67ddb06bc7175d8f155fe2bf,67ddb44d013654f31f2c3dff,67dfad2c9ff05c298d95ed1f,0,"{""Q0"":""shape""}",sandbox,category_organization
67dfafe8aac2aea29b2871aa,2449,survey-multi-choice,33,147859,0,628f93dc168e3004adcbebb8,67ddb44d013654f31f2c3dff,67dfaf2b3482feafaee3dcfa,0,"{""Q0"":""shape""}",stairs,category_organization
67dfafe8aac2aea29b2871ac,2391,survey-multi-choice,34,150250,0,628f93dc168e3004adcbebb8,67ddb44d013654f31f2c3dff,67dfaf2b3482feafaee3dcfa,0,"{""Q0"":""none of these""}",animal,category_organization
67dfafe8aac2aea29b2871ae,2611,survey-multi-choice,35,152862,0,628f93dc168e3004adcbebb8,67ddb44d013654f31f2c3dff,67dfaf2b3482feafaee3dcfa,0,"{""Q0"":""shape""}",underpants,category_organization
67dfafe8aac2aea29b2871b0,2627,survey-multi-choice,36,155490,0,628f93dc168e3004adcbebb8,67ddb44d013654f31f2c3dff,67dfaf2b3482feafaee3dcfa,0,"{""Q0"":""shape""}",helicopter,category_organization
67dfafe8aac2aea29b2871b2,3363,html-button-response,37,158853,0,628f93dc168e3004adcbebb8,67ddb44d013654f31f2c3dff,67dfaf2b3482feafaee3dcfa,0,0,,
67dfafe8aac2aea29b2871b4,13734,survey-multi-choice,24,444518,0,67ddb06bc7175d8f155fe2bf,67ddb44d013654f31f2c3dff,67dfad2c9ff05c298d95ed1f,0,"{""Q0"":""shape""}",lamp,category_organization
67dfafe8aac2aea29b2871b6,12399,survey-multi-choice,25,456919,0,67ddb06bc7175d8f155fe2bf,67ddb44d013654f31f2c3dff,67dfad2c9ff05c298d95ed1f,0,"{""Q0"":""none of these""}",lettuce,category_organization
67dfafe8aac2aea29b2871b8,16974,survey-multi-choice,26,473894,0,67ddb06bc7175d8f155fe2bf,67ddb44d013654f31f2c3dff,67dfad2c9ff05c298d95ed1f,0,"{""Q0"":""none of these""}",lion,category_organization
67dfafe9aac2aea29b2871ba,11262,survey-multi-choice,27,485158,0,67ddb06bc7175d8f155fe2bf,67ddb44d013654f31f2c3dff,67dfad2c9ff05c298d95ed1f,0,"{""Q0"":""shape""}",watch (object),category_organization
67dfafe9aac2aea29b2871bc,19999,survey-multi-choice,28,505158,0,67ddb06bc7175d8f155fe2bf,67ddb44d013654f31f2c3dff,67dfad2c9ff05c298d95ed1f,0,"{""Q0"":""shape""}",ball,category_organization
67dfafe9aac2aea29b2871be,39558,survey-multi-choice,29,544718,0,67ddb06bc7175d8f155fe2bf,67ddb44d013654f31f2c3dff,67dfad2c9ff05c298d95ed1f,0,"{""Q0"":""none of these""}",lavender,category_organization
67dfafe9aac2aea29b2871c0,16350,survey-multi-choice,30,561069,0,67ddb06bc7175d8f155fe2bf,67ddb44d013654f31f2c3dff,67dfad2c9ff05c298d95ed1f,0,"{""Q0"":""material""}",tissue,category_organization
67dfafe9aac2aea29b2871c2,12712,survey-multi-choice,31,573783,0,67ddb06bc7175d8f155fe2bf,67ddb44d013654f31f2c3dff,67dfad2c9ff05c298d95ed1f,0,"{""Q0"":""none of these""}",kitchen,category_organization
67dfafe9aac2aea29b2871c4,13525,survey-multi-choice,32,587310,0,67ddb06bc7175d8f155fe2bf,67ddb44d013654f31f2c3dff,67dfad2c9ff05c298d95ed1f,0,"{""Q0"":""material""}",nail (finger),category_organization
67dfafe9aac2aea29b2871c6,12654,survey-multi-choice,33,599966,0,67ddb06bc7175d8f155fe2bf,67ddb44d013654f31f2c3dff,67dfad2c9ff05c298d95ed1f,0,"{""Q0"":""shape""}",cloud,category_organization
67dfafe9aac2aea29b2871c8,20943,survey-multi-choice,34,620910,0,67ddb06bc7175d8f155fe2bf,67ddb44d013654f31f2c3dff,67dfad2c9ff05c298d95ed1f,0,"{""Q0"":""shape""}",bicycle,category_organization
67dfafe9aac2aea29b2871ca,13119,survey-multi-choice,36,660710,0,67ddb06bc7175d8f155fe2bf,67ddb44d013654f31f2c3dff,67dfad2c9ff05c298d95ed1f,0,"{""Q0"":""shape""}",macaroni,category_organization
67dfafe9aac2aea29b2871cc,9629,html-button-response,37,670341,0,67ddb06bc7175d8f155fe2bf,67ddb44d013654f31f2c3dff,67dfad2c9ff05c298d95ed1f,0,0,,
67dfafeaaac2aea29b2871ce,26679,survey-multi-choice,35,647590,0,67ddb06bc7175d8f155fe2bf,67ddb44d013654f31f2c3dff,67dfad2c9ff05c298d95ed1f,0,"{""Q0"":""shape""}",watermelon,category_organization
67dfb01aaac2aea29b2871d0,5343,instructions,0,5344,0,58c4ff30a2ea98000191b0bd,67ddb44d013654f31f2c3dff,67dfaf080b2e98936cc74290,0,,,
67dfb01aaac2aea29b2871d2,8319,instructions,1,13663,0,58c4ff30a2ea98000191b0bd,67ddb44d013654f31f2c3dff,67dfaf080b2e98936cc74290,0,,,
67dfb01aaac2aea29b2871d4,3256,html-button-response,5,60079,0,58c4ff30a2ea98000191b0bd,67ddb44d013654f31f2c3dff,67dfaf080b2e98936cc74290,0,0,,
67dfb01aaac2aea29b2871d6,18639,html-button-response,2,32304,0,58c4ff30a2ea98000191b0bd,67ddb44d013654f31f2c3dff,67dfaf080b2e98936cc74290,0,0,,
67dfb01aaac2aea29b2871d8,13095,html-button-response,4,56823,0,58c4ff30a2ea98000191b0bd,67ddb44d013654f31f2c3dff,67dfaf080b2e98936cc74290,0,0,,
67dfb01aaac2aea29b2871da,11423,html-button-response,3,43727,0,58c4ff30a2ea98000191b0bd,67ddb44d013654f31f2c3dff,67dfaf080b2e98936cc74290,0,0,,
67dfb01aaac2aea29b2871dc,7071,html-button-response,6,67151,0,58c4ff30a2ea98000191b0bd,67ddb44d013654f31f2c3dff,67dfaf080b2e98936cc74290,0,0,,
67dfb01aaac2aea29b2871de,18711,survey-multi-choice,7,85864,0,58c4ff30a2ea98000191b0bd,67ddb44d013654f31f2c3dff,67dfaf080b2e98936cc74290,0,"{""Q0"":""none of these""}",happiness,practice_category
67dfb01aaac2aea29b2871e0,5126,html-button-response,8,90991,0,58c4ff30a2ea98000191b0bd,67ddb44d013654f31f2c3dff,67dfaf080b2e98936cc74290,0,0,,
67dfb01aaac2aea29b2871e2,9392,survey-multi-choice,9,100384,0,58c4ff30a2ea98000191b0bd,67ddb44d013654f31f2c3dff,67dfaf080b2e98936cc74290,0,"{""Q0"":""color""}",red,practice_category
67dfb01aaac2aea29b2871e4,1439,html-button-response,10,101823,0,58c4ff30a2ea98000191b0bd,67ddb44d013654f31f2c3dff,67dfaf080b2e98936cc74290,0,0,,
67dfb01aaac2aea29b2871e6,17376,survey-multi-choice,11,119200,0,58c4ff30a2ea98000191b0bd,67ddb44d013654f31f2c3dff,67dfaf080b2e98936cc74290,0,"{""Q0"":""material""}",pottery,practice_category
67dfb01aaac2aea29b2871e8,1303,html-button-response,12,120503,0,58c4ff30a2ea98000191b0bd,67ddb44d013654f31f2c3dff,67dfaf080b2e98936cc74290,0,0,,
67dfb01aaac2aea29b2871ea,5263,survey-multi-choice,13,125768,0,58c4ff30a2ea98000191b0bd,67ddb44d013654f31f2c3dff,67dfaf080b2e98936cc74290,0,"{""Q0"":""shape""}",square,practice_category
67dfb01aaac2aea29b2871ec,1287,html-button-response,14,127055,0,58c4ff30a2ea98000191b0bd,67ddb44d013654f31f2c3dff,67dfaf080b2e98936cc74290,0,0,,
67dfb01aaac2aea29b2871ee,3623,html-button-response,15,130679,0,58c4ff30a2ea98000191b0bd,67ddb44d013654f31f2c3dff,67dfaf080b2e98936cc74290,0,0,,
67dfb01aaac2aea29b2871f0,5280,survey-multi-choice,16,135960,0,58c4ff30a2ea98000191b0bd,67ddb44d013654f31f2c3dff,67dfaf080b2e98936cc74290,0,"{""Q0"":""none of these""}",zebra,category_organization
67dfb01aaac2aea29b2871f2,11903,survey-multi-choice,17,147864,0,58c4ff30a2ea98000191b0bd,67ddb44d013654f31f2c3dff,67dfaf080b2e98936cc74290,0,"{""Q0"":""shape""}",bell,category_organization
67dfb01aaac2aea29b2871f4,3592,survey-multi-choice,18,151456,0,58c4ff30a2ea98000191b0bd,67ddb44d013654f31f2c3dff,67dfaf080b2e98936cc74290,0,"{""Q0"":""none of these""}",hen,category_organization
67dfb01baac2aea29b2871f6,3751,survey-multi-choice,19,155208,0,58c4ff30a2ea98000191b0bd,67ddb44d013654f31f2c3dff,67dfaf080b2e98936cc74290,0,"{""Q0"":""material""}",chalk,category_organization
67dfb01baac2aea29b2871f8,10304,survey-multi-choice,20,165512,0,58c4ff30a2ea98000191b0bd,67ddb44d013654f31f2c3dff,67dfaf080b2e98936cc74290,0,"{""Q0"":""none of these""}",present,category_organization
67dfb01baac2aea29b2871fa,7463,survey-multi-choice,21,172976,0,58c4ff30a2ea98000191b0bd,67ddb44d013654f31f2c3dff,67dfaf080b2e98936cc74290,0,"{""Q0"":""material""}",rain,category_organization
67dfb01baac2aea29b2871fc,6351,survey-multi-choice,22,179328,0,58c4ff30a2ea98000191b0bd,67ddb44d013654f31f2c3dff,67dfaf080b2e98936cc74290,0,"{""Q0"":""material""}",soda,category_organization
67dfb01baac2aea29b2871fe,8831,survey-multi-choice,23,188159,0,58c4ff30a2ea98000191b0bd,67ddb44d013654f31f2c3dff,67dfaf080b2e98936cc74290,0,"{""Q0"":""shape""}",diaper,category_organization
67dfb01baac2aea29b287200,9863,survey-multi-choice,24,198023,0,58c4ff30a2ea98000191b0bd,67ddb44d013654f31f2c3dff,67dfaf080b2e98936cc74290,0,"{""Q0"":""shape""}",butt,category_organization
67dfb01baac2aea29b287202,4912,survey-multi-choice,25,202936,0,58c4ff30a2ea98000191b0bd,67ddb44d013654f31f2c3dff,67dfaf080b2e98936cc74290,0,"{""Q0"":""material""}",sandwich,category_organization
67dfb01baac2aea29b287204,6014,survey-multi-choice,26,208951,0,58c4ff30a2ea98000191b0bd,67ddb44d013654f31f2c3dff,67dfaf080b2e98936cc74290,0,"{""Q0"":""shape""}",head,category_organization
67dfb01baac2aea29b287206,2735,survey-multi-choice,27,211687,0,58c4ff30a2ea98000191b0bd,67ddb44d013654f31f2c3dff,67dfaf080b2e98936cc74290,0,"{""Q0"":""shape""}",finger,category_organization
67dfb01baac2aea29b287208,5415,survey-multi-choice,28,217103,0,58c4ff30a2ea98000191b0bd,67ddb44d013654f31f2c3dff,67dfaf080b2e98936cc74290,0,"{""Q0"":""material""}",beans,category_organization
67dfb01baac2aea29b28720a,4168,survey-multi-choice,29,221272,0,58c4ff30a2ea98000191b0bd,67ddb44d013654f31f2c3dff,67dfaf080b2e98936cc74290,0,"{""Q0"":""none of these""}",lavender,category_organization
67dfb01baac2aea29b28720c,3647,survey-multi-choice,30,224919,0,58c4ff30a2ea98000191b0bd,67ddb44d013654f31f2c3dff,67dfaf080b2e98936cc74290,0,"{""Q0"":""shape""}",leg,category_organization
67dfb01baac2aea29b28720e,5568,survey-multi-choice,31,230487,0,58c4ff30a2ea98000191b0bd,67ddb44d013654f31f2c3dff,67dfaf080b2e98936cc74290,0,"{""Q0"":""shape""}",turtle,category_organization
67dfb01baac2aea29b287210,4359,survey-multi-choice,32,234847,0,58c4ff30a2ea98000191b0bd,67ddb44d013654f31f2c3dff,67dfaf080b2e98936cc74290,0,"{""Q0"":""shape""}",bench,category_organization
67dfb01baac2aea29b287212,6551,survey-multi-choice,33,241399,0,58c4ff30a2ea98000191b0bd,67ddb44d013654f31f2c3dff,67dfaf080b2e98936cc74290,0,"{""Q0"":""shape""}",light (object),category_organization
67dfb01baac2aea29b287214,3087,survey-multi-choice,34,244487,0,58c4ff30a2ea98000191b0bd,67ddb44d013654f31f2c3dff,67dfaf080b2e98936cc74290,0,"{""Q0"":""material""}",jelly,category_organization
67dfb01baac2aea29b287216,4135,survey-multi-choice,35,248623,0,58c4ff30a2ea98000191b0bd,67ddb44d013654f31f2c3dff,67dfaf080b2e98936cc74290,0,"{""Q0"":""shape""}",necklace,category_organization
67dfb01baac2aea29b287218,2992,survey-multi-choice,36,251615,0,58c4ff30a2ea98000191b0bd,67ddb44d013654f31f2c3dff,67dfaf080b2e98936cc74290,0,"{""Q0"":""material""}",butter,category_organization
67dfb01baac2aea29b28721a,3791,html-button-response,37,255407,0,58c4ff30a2ea98000191b0bd,67ddb44d013654f31f2c3dff,67dfaf080b2e98936cc74290,0,0,,
67dfb03baac2aea29b28721c,69798,instructions,0,69794,0,63babb3f30c7eea8b8114f14,67ddb44d013654f31f2c3dff,67dfaebc67ee0643bc27cc8c,0,,,
67dfb03baac2aea29b28721e,6359,instructions,1,76154,0,63babb3f30c7eea8b8114f14,67ddb44d013654f31f2c3dff,67dfaebc67ee0643bc27cc8c,0,,,
67dfb03baac2aea29b287220,16314,html-button-response,2,92470,0,63babb3f30c7eea8b8114f14,67ddb44d013654f31f2c3dff,67dfaebc67ee0643bc27cc8c,0,0,,
67dfb03baac2aea29b287222,8907,html-button-response,3,101378,0,63babb3f30c7eea8b8114f14,67ddb44d013654f31f2c3dff,67dfaebc67ee0643bc27cc8c,0,0,,
67dfb03baac2aea29b287224,3933,html-button-response,5,123679,0,63babb3f30c7eea8b8114f14,67ddb44d013654f31f2c3dff,67dfaebc67ee0643bc27cc8c,0,0,,
67dfb03baac2aea29b287226,18364,html-button-response,4,119744,0,63babb3f30c7eea8b8114f14,67ddb44d013654f31f2c3dff,67dfaebc67ee0643bc27cc8c,0,0,,
67dfb03baac2aea29b287228,30317,survey-multi-choice,7,161619,0,63babb3f30c7eea8b8114f14,67ddb44d013654f31f2c3dff,67dfaebc67ee0643bc27cc8c,0,"{""Q0"":""material""}",pottery,practice_category
67dfb03baac2aea29b28722a,10963,html-button-response,8,172584,0,63babb3f30c7eea8b8114f14,67ddb44d013654f31f2c3dff,67dfaebc67ee0643bc27cc8c,0,0,,
67dfb03baac2aea29b28722c,7625,html-button-response,6,131300,0,63babb3f30c7eea8b8114f14,67ddb44d013654f31f2c3dff,67dfaebc67ee0643bc27cc8c,0,0,,
67dfb03baac2aea29b28722e,9723,survey-multi-choice,9,182308,0,63babb3f30c7eea8b8114f14,67ddb44d013654f31f2c3dff,67dfaebc67ee0643bc27cc8c,0,"{""Q0"":""none of these""}",happiness,practice_category
67dfb03baac2aea29b287230,2679,html-button-response,10,184988,0,63babb3f30c7eea8b8114f14,67ddb44d013654f31f2c3dff,67dfaebc67ee0643bc27cc8c,0,0,,
67dfb03baac2aea29b287232,8352,survey-multi-choice,11,193338,0,63babb3f30c7eea8b8114f14,67ddb44d013654f31f2c3dff,67dfaebc67ee0643bc27cc8c,0,"{""Q0"":""color""}",red,practice_category
67dfb03baac2aea29b287234,3572,instructions,0,3574,0,610690e2360d2999fab0ac53,67ddb44d013654f31f2c3dff,67dfaeec32770d64c58920c5,0,,,
67dfb03baac2aea29b287236,1715,html-button-response,12,195054,0,63babb3f30c7eea8b8114f14,67ddb44d013654f31f2c3dff,67dfaebc67ee0643bc27cc8c,0,0,,
67dfb03baac2aea29b287238,3051,html-button-response,15,204524,0,63babb3f30c7eea8b8114f14,67ddb44d013654f31f2c3dff,67dfaebc67ee0643bc27cc8c,0,0,,
67dfb03baac2aea29b28723a,12821,survey-multi-choice,16,217347,0,63babb3f30c7eea8b8114f14,67ddb44d013654f31f2c3dff,67dfaebc67ee0643bc27cc8c,0,"{""Q0"":""none of these""}",firetruck,category_organization
67dfb03baac2aea29b28723c,5293,survey-multi-choice,13,200349,0,63babb3f30c7eea8b8114f14,67ddb44d013654f31f2c3dff,67dfaebc67ee0643bc27cc8c,0,"{""Q0"":""shape""}",square,practice_category
67dfb03baac2aea29b28723e,1122,html-button-response,14,201471,0,63babb3f30c7eea8b8114f14,67ddb44d013654f31f2c3dff,67dfaebc67ee0643bc27cc8c,0,0,,
67dfb03baac2aea29b287240,10245,survey-multi-choice,17,227593,0,63babb3f30c7eea8b8114f14,67ddb44d013654f31f2c3dff,67dfaebc67ee0643bc27cc8c,0,"{""Q0"":""none of these""}",goal,category_organization
67dfb03baac2aea29b287242,12807,html-button-response,2,22281,0,610690e2360d2999fab0ac53,67ddb44d013654f31f2c3dff,67dfaeec32770d64c58920c5,0,0,,
67dfb03baac2aea29b287244,5896,instructions,1,9472,0,610690e2360d2999fab0ac53,67ddb44d013654f31f2c3dff,67dfaeec32770d64c58920c5,0,,,
67dfb03baac2aea29b287246,5939,html-button-response,6,50270,0,610690e2360d2999fab0ac53,67ddb44d013654f31f2c3dff,67dfaeec32770d64c58920c5,0,0,,
67dfb03baac2aea29b287248,7163,html-button-response,3,29446,0,610690e2360d2999fab0ac53,67ddb44d013654f31f2c3dff,67dfaeec32770d64c58920c5,0,0,,
67dfb03baac2aea29b28724a,2182,html-button-response,5,44329,0,610690e2360d2999fab0ac53,67ddb44d013654f31f2c3dff,67dfaeec32770d64c58920c5,0,0,,
67dfb03baac2aea29b28724c,12697,html-button-response,4,42145,0,610690e2360d2999fab0ac53,67ddb44d013654f31f2c3dff,67dfaeec32770d64c58920c5,0,0,,
67dfb03baac2aea29b28724e,6766,survey-multi-choice,18,234360,0,63babb3f30c7eea8b8114f14,67ddb44d013654f31f2c3dff,67dfaebc67ee0643bc27cc8c,0,"{""Q0"":""none of these""}",photo,category_organization
67dfb03baac2aea29b287250,10421,survey-multi-choice,19,244783,0,63babb3f30c7eea8b8114f14,67ddb44d013654f31f2c3dff,67dfaebc67ee0643bc27cc8c,0,"{""Q0"":""none of these""}",high chair,category_organization
67dfb03baac2aea29b287252,8104,survey-multi-choice,22,266156,0,63babb3f30c7eea8b8114f14,67ddb44d013654f31f2c3dff,67dfaebc67ee0643bc27cc8c,0,"{""Q0"":""none of these""}",palm,category_organization
67dfb03baac2aea29b287254,6735,survey-multi-choice,20,251515,0,63babb3f30c7eea8b8114f14,67ddb44d013654f31f2c3dff,67dfaebc67ee0643bc27cc8c,0,"{""Q0"":""none of these""}",butterfly,category_organization
67dfb03baac2aea29b287256,6829,survey-multi-choice,23,272986,0,63babb3f30c7eea8b8114f14,67ddb44d013654f31f2c3dff,67dfaebc67ee0643bc27cc8c,0,"{""Q0"":""none of these""}",juice,category_organization
67dfb03baac2aea29b287258,6534,survey-multi-choice,21,258050,0,63babb3f30c7eea8b8114f14,67ddb44d013654f31f2c3dff,67dfaebc67ee0643bc27cc8c,0,"{""Q0"":""none of these""}",cow,category_organization
67dfb03baac2aea29b28725a,2560,survey-multi-choice,24,275546,0,63babb3f30c7eea8b8114f14,67ddb44d013654f31f2c3dff,67dfaebc67ee0643bc27cc8c,0,"{""Q0"":""none of these""}",lavender,category_organization
67dfb03baac2aea29b28725c,7055,survey-multi-choice,25,282603,0,63babb3f30c7eea8b8114f14,67ddb44d013654f31f2c3dff,67dfaebc67ee0643bc27cc8c,0,"{""Q0"":""none of these""}",book,category_organization
67dfb03baac2aea29b28725e,7842,survey-multi-choice,26,290447,0,63babb3f30c7eea8b8114f14,67ddb44d013654f31f2c3dff,67dfaebc67ee0643bc27cc8c,0,"{""Q0"":""none of these""}",picture,category_organization
67dfb03baac2aea29b287260,5438,survey-multi-choice,27,295886,0,63babb3f30c7eea8b8114f14,67ddb44d013654f31f2c3dff,67dfaebc67ee0643bc27cc8c,0,"{""Q0"":""none of these""}",skirt,category_organization
67dfb03baac2aea29b287262,5429,survey-multi-choice,29,308116,0,63babb3f30c7eea8b8114f14,67ddb44d013654f31f2c3dff,67dfaebc67ee0643bc27cc8c,0,"{""Q0"":""none of these""}",watch (object),category_organization
67dfb03baac2aea29b287264,6801,survey-multi-choice,28,302687,0,63babb3f30c7eea8b8114f14,67ddb44d013654f31f2c3dff,67dfaebc67ee0643bc27cc8c,0,"{""Q0"":""none of these""}",remote control,category_organization
67dfb03caac2aea29b287266,7013,survey-multi-choice,30,315127,0,63babb3f30c7eea8b8114f14,67ddb44d013654f31f2c3dff,67dfaebc67ee0643bc27cc8c,0,"{""Q0"":""none of these""}",lamp,category_organization
67dfb03caac2aea29b287268,11358,survey-multi-choice,31,326486,0,63babb3f30c7eea8b8114f14,67ddb44d013654f31f2c3dff,67dfaebc67ee0643bc27cc8c,0,"{""Q0"":""none of these""}",pencil,category_organization
67dfb03caac2aea29b28726a,3853,survey-multi-choice,32,330340,0,63babb3f30c7eea8b8114f14,67ddb44d013654f31f2c3dff,67dfaebc67ee0643bc27cc8c,0,"{""Q0"":""none of these""}",underpants,category_organization
67dfb03caac2aea29b28726c,2909,survey-multi-choice,33,333250,0,63babb3f30c7eea8b8114f14,67ddb44d013654f31f2c3dff,67dfaebc67ee0643bc27cc8c,0,"{""Q0"":""none of these""}",street,category_organization
67dfb03caac2aea29b28726e,12045,survey-multi-choice,35,349546,0,63babb3f30c7eea8b8114f14,67ddb44d013654f31f2c3dff,67dfaebc67ee0643bc27cc8c,0,"{""Q0"":""shape""}",bed,category_organization
67dfb03caac2aea29b287270,4248,survey-multi-choice,34,337500,0,63babb3f30c7eea8b8114f14,67ddb44d013654f31f2c3dff,67dfaebc67ee0643bc27cc8c,0,"{""Q0"":""none of these""}",hippopotamus,category_organization
67dfb03caac2aea29b287272,5384,survey-multi-choice,36,354931,0,63babb3f30c7eea8b8114f14,67ddb44d013654f31f2c3dff,67dfaebc67ee0643bc27cc8c,0,"{""Q0"":""none of these""}",soup,category_organization
67dfb03caac2aea29b287274,5890,html-button-response,37,360822,0,63babb3f30c7eea8b8114f14,67ddb44d013654f31f2c3dff,67dfaebc67ee0643bc27cc8c,0,0,,
67dfb05faac2aea29b287276,6144,instructions,0,6145,0,6549927350580f18680deac1,67ddb44d013654f31f2c3dff,67dfaf52a8a80e9d2fb0c5f9,0,,,
67dfb05faac2aea29b287278,22164,instructions,1,28309,0,6549927350580f18680deac1,67ddb44d013654f31f2c3dff,67dfaf52a8a80e9d2fb0c5f9,0,,,
67dfb05faac2aea29b28727a,16025,html-button-response,2,44335,0,6549927350580f18680deac1,67ddb44d013654f31f2c3dff,67dfaf52a8a80e9d2fb0c5f9,0,0,,
67dfb05faac2aea29b28727c,4781,html-button-response,3,49117,0,6549927350580f18680deac1,67ddb44d013654f31f2c3dff,67dfaf52a8a80e9d2fb0c5f9,0,0,,
67dfb05faac2aea29b28727e,10438,html-button-response,4,59555,0,6549927350580f18680deac1,67ddb44d013654f31f2c3dff,67dfaf52a8a80e9d2fb0c5f9,0,0,,
67dfb05faac2aea29b287280,2540,html-button-response,5,62095,0,6549927350580f18680deac1,67ddb44d013654f31f2c3dff,67dfaf52a8a80e9d2fb0c5f9,0,0,,
67dfb05faac2aea29b287282,9461,html-button-response,6,71557,0,6549927350580f18680deac1,67ddb44d013654f31f2c3dff,67dfaf52a8a80e9d2fb0c5f9,0,0,,
67dfb05faac2aea29b287284,5850,survey-multi-choice,7,77407,0,6549927350580f18680deac1,67ddb44d013654f31f2c3dff,67dfaf52a8a80e9d2fb0c5f9,0,"{""Q0"":""shape""}",square,practice_category
67dfb05faac2aea29b287286,1409,html-button-response,8,78817,0,6549927350580f18680deac1,67ddb44d013654f31f2c3dff,67dfaf52a8a80e9d2fb0c5f9,0,0,,
67dfb05faac2aea29b287288,14830,survey-multi-choice,9,93647,0,6549927350580f18680deac1,67ddb44d013654f31f2c3dff,67dfaf52a8a80e9d2fb0c5f9,0,"{""Q0"":""material""}",pottery,practice_category
67dfb05faac2aea29b28728a,7258,survey-multi-choice,11,104471,0,6549927350580f18680deac1,67ddb44d013654f31f2c3dff,67dfaf52a8a80e9d2fb0c5f9,0,"{""Q0"":""none of these""}",happiness,practice_category
67dfb05faac2aea29b28728c,1239,html-button-response,12,105711,0,6549927350580f18680deac1,67ddb44d013654f31f2c3dff,67dfaf52a8a80e9d2fb0c5f9,0,0,,
67dfb05faac2aea29b28728e,3566,html-button-response,10,97213,0,6549927350580f18680deac1,67ddb44d013654f31f2c3dff,67dfaf52a8a80e9d2fb0c5f9,0,0,,
67dfb05faac2aea29b287290,4642,survey-multi-choice,13,110353,0,6549927350580f18680deac1,67ddb44d013654f31f2c3dff,67dfaf52a8a80e9d2fb0c5f9,0,"{""Q0"":""color""}",red,practice_category
67dfb05faac2aea29b287292,1315,html-button-response,14,111669,0,6549927350580f18680deac1,67ddb44d013654f31f2c3dff,67dfaf52a8a80e9d2fb0c5f9,0,0,,
67dfb05faac2aea29b287294,1590,html-button-response,15,113259,0,6549927350580f18680deac1,67ddb44d013654f31f2c3dff,67dfaf52a8a80e9d2fb0c5f9,0,0,,
67dfb05faac2aea29b287296,12195,survey-multi-choice,16,125455,0,6549927350580f18680deac1,67ddb44d013654f31f2c3dff,67dfaf52a8a80e9d2fb0c5f9,0,"{""Q0"":""none of these""}",money,category_organization
67dfb05faac2aea29b287298,5214,survey-multi-choice,17,130669,0,6549927350580f18680deac1,67ddb44d013654f31f2c3dff,67dfaf52a8a80e9d2fb0c5f9,0,"{""Q0"":""shape""}",skirt,category_organization
67dfb05faac2aea29b28729a,13087,survey-multi-choice,18,143757,0,6549927350580f18680deac1,67ddb44d013654f31f2c3dff,67dfaf52a8a80e9d2fb0c5f9,0,"{""Q0"":""shape""}",chick,category_organization
67dfb05faac2aea29b28729c,7384,survey-multi-choice,19,151141,0,6549927350580f18680deac1,67ddb44d013654f31f2c3dff,67dfaf52a8a80e9d2fb0c5f9,0,"{""Q0"":""material""}",lettuce,category_organization
67dfb05faac2aea29b28729e,2377,survey-multi-choice,20,153518,0,6549927350580f18680deac1,67ddb44d013654f31f2c3dff,67dfaf52a8a80e9d2fb0c5f9,0,"{""Q0"":""none of these""}",lavender,category_organization
67dfb05faac2aea29b2872a0,14776,survey-multi-choice,21,168295,0,6549927350580f18680deac1,67ddb44d013654f31f2c3dff,67dfaf52a8a80e9d2fb0c5f9,0,"{""Q0"":""shape""}",ant,category_organization
67dfb05faac2aea29b2872a2,4771,survey-multi-choice,22,173067,0,6549927350580f18680deac1,67ddb44d013654f31f2c3dff,67dfaf52a8a80e9d2fb0c5f9,0,"{""Q0"":""shape""}",lip,category_organization
67dfb060aac2aea29b2872a4,5028,survey-multi-choice,23,178095,0,6549927350580f18680deac1,67ddb44d013654f31f2c3dff,67dfaf52a8a80e9d2fb0c5f9,0,"{""Q0"":""shape""}",taxi,category_organization
67dfb060aac2aea29b2872a6,4563,survey-multi-choice,24,182658,0,6549927350580f18680deac1,67ddb44d013654f31f2c3dff,67dfaf52a8a80e9d2fb0c5f9,0,"{""Q0"":""material""}",snowsuit,category_organization
67dfb060aac2aea29b2872a8,2719,survey-multi-choice,25,185378,0,6549927350580f18680deac1,67ddb44d013654f31f2c3dff,67dfaf52a8a80e9d2fb0c5f9,0,"{""Q0"":""none of these""}",song,category_organization
67dfb060aac2aea29b2872aa,8568,survey-multi-choice,26,193947,0,6549927350580f18680deac1,67ddb44d013654f31f2c3dff,67dfaf52a8a80e9d2fb0c5f9,0,"{""Q0"":""material""}",potato,category_organization
67dfb060aac2aea29b2872ac,3526,survey-multi-choice,27,197473,0,6549927350580f18680deac1,67ddb44d013654f31f2c3dff,67dfaf52a8a80e9d2fb0c5f9,0,"{""Q0"":""shape""}",door,category_organization
67dfb060aac2aea29b2872ae,8691,survey-multi-choice,28,206164,0,6549927350580f18680deac1,67ddb44d013654f31f2c3dff,67dfaf52a8a80e9d2fb0c5f9,0,"{""Q0"":""material""}",coke,category_organization
67dfb060aac2aea29b2872b0,3294,survey-multi-choice,30,214471,0,6549927350580f18680deac1,67ddb44d013654f31f2c3dff,67dfaf52a8a80e9d2fb0c5f9,0,"{""Q0"":""material""}",jacket,category_organization
67dfb060aac2aea29b2872b2,5012,survey-multi-choice,29,211177,0,6549927350580f18680deac1,67ddb44d013654f31f2c3dff,67dfaf52a8a80e9d2fb0c5f9,0,"{""Q0"":""shape""}",moon,category_organization
67dfb060aac2aea29b2872b4,2836,survey-multi-choice,31,217307,0,6549927350580f18680deac1,67ddb44d013654f31f2c3dff,67dfaf52a8a80e9d2fb0c5f9,0,"{""Q0"":""material""}",blanket,category_organization
67dfb060aac2aea29b2872b6,7607,survey-multi-choice,32,224914,0,6549927350580f18680deac1,67ddb44d013654f31f2c3dff,67dfaf52a8a80e9d2fb0c5f9,0,"{""Q0"":""shape""}",pill,category_organization
67dfb060aac2aea29b2872b8,8088,survey-multi-choice,33,233003,0,6549927350580f18680deac1,67ddb44d013654f31f2c3dff,67dfaf52a8a80e9d2fb0c5f9,0,"{""Q0"":""none of these""}",tea,category_organization
67dfb060aac2aea29b2872ba,5159,survey-multi-choice,34,238162,0,6549927350580f18680deac1,67ddb44d013654f31f2c3dff,67dfaf52a8a80e9d2fb0c5f9,0,"{""Q0"":""none of these""}",garage,category_organization
67dfb060aac2aea29b2872bc,13960,survey-multi-choice,35,252123,0,6549927350580f18680deac1,67ddb44d013654f31f2c3dff,67dfaf52a8a80e9d2fb0c5f9,0,"{""Q0"":""material""}",kiwi,category_organization
67dfb060aac2aea29b2872be,5671,survey-multi-choice,36,257795,0,6549927350580f18680deac1,67ddb44d013654f31f2c3dff,67dfaf52a8a80e9d2fb0c5f9,0,"{""Q0"":""shape""}",bib,category_organization
67dfb060aac2aea29b2872c0,2833,html-button-response,37,260629,0,6549927350580f18680deac1,67ddb44d013654f31f2c3dff,67dfaf52a8a80e9d2fb0c5f9,0,0,,
67dfb068aac2aea29b2872c2,2380,instructions,0,2383,0,5c699c62b1b0080001bfca3f,67ddb44d013654f31f2c3dff,67dfaf8f3881052b948927d0,0,,,
67dfb069aac2aea29b2872c4,17851,instructions,1,20236,0,5c699c62b1b0080001bfca3f,67ddb44d013654f31f2c3dff,67dfaf8f3881052b948927d0,0,,,
67dfb069aac2aea29b2872c6,9330,html-button-response,2,29569,0,5c699c62b1b0080001bfca3f,67ddb44d013654f31f2c3dff,67dfaf8f3881052b948927d0,0,0,,
67dfb069aac2aea29b2872c8,7659,html-button-response,4,42618,0,5c699c62b1b0080001bfca3f,67ddb44d013654f31f2c3dff,67dfaf8f3881052b948927d0,0,0,,
67dfb069aac2aea29b2872ca,4454,html-button-response,5,47074,0,5c699c62b1b0080001bfca3f,67ddb44d013654f31f2c3dff,67dfaf8f3881052b948927d0,0,0,,
67dfb069aac2aea29b2872cc,5387,html-button-response,3,34958,0,5c699c62b1b0080001bfca3f,67ddb44d013654f31f2c3dff,67dfaf8f3881052b948927d0,0,0,,
67dfb069aac2aea29b2872ce,3594,html-button-response,6,50669,0,5c699c62b1b0080001bfca3f,67ddb44d013654f31f2c3dff,67dfaf8f3881052b948927d0,0,0,,
67dfb069aac2aea29b2872d0,10726,survey-multi-choice,7,61399,0,5c699c62b1b0080001bfca3f,67ddb44d013654f31f2c3dff,67dfaf8f3881052b948927d0,0,"{""Q0"":""color""}",red,practice_category
67dfb069aac2aea29b2872d2,7430,survey-multi-choice,9,73410,0,5c699c62b1b0080001bfca3f,67ddb44d013654f31f2c3dff,67dfaf8f3881052b948927d0,0,"{""Q0"":""none of these""}",happiness,practice_category
67dfb069aac2aea29b2872d4,4576,html-button-response,8,65978,0,5c699c62b1b0080001bfca3f,67ddb44d013654f31f2c3dff,67dfaf8f3881052b948927d0,0,0,,
67dfb069aac2aea29b2872d6,3983,html-button-response,10,77394,0,5c699c62b1b0080001bfca3f,67ddb44d013654f31f2c3dff,67dfaf8f3881052b948927d0,0,0,,
67dfb069aac2aea29b2872d8,6454,survey-multi-choice,11,83849,0,5c699c62b1b0080001bfca3f,67ddb44d013654f31f2c3dff,67dfaf8f3881052b948927d0,0,"{""Q0"":""material""}",pottery,practice_category
67dfb069aac2aea29b2872da,1256,html-button-response,12,85106,0,5c699c62b1b0080001bfca3f,67ddb44d013654f31f2c3dff,67dfaf8f3881052b948927d0,0,0,,
67dfb069aac2aea29b2872dc,4753,survey-multi-choice,13,89861,0,5c699c62b1b0080001bfca3f,67ddb44d013654f31f2c3dff,67dfaf8f3881052b948927d0,0,"{""Q0"":""shape""}",square,practice_category
67dfb069aac2aea29b2872de,1001,html-button-response,14,90864,0,5c699c62b1b0080001bfca3f,67ddb44d013654f31f2c3dff,67dfaf8f3881052b948927d0,0,0,,
67dfb069aac2aea29b2872e0,1509,html-button-response,15,92374,0,5c699c62b1b0080001bfca3f,67ddb44d013654f31f2c3dff,67dfaf8f3881052b948927d0,0,0,,
67dfb069aac2aea29b2872e2,8755,survey-multi-choice,16,101133,0,5c699c62b1b0080001bfca3f,67ddb44d013654f31f2c3dff,67dfaf8f3881052b948927d0,0,"{""Q0"":""none of these""}",applesauce,category_organization
67dfb069aac2aea29b2872e4,9612,survey-multi-choice,17,110746,0,5c699c62b1b0080001bfca3f,67ddb44d013654f31f2c3dff,67dfaf8f3881052b948927d0,0,"{""Q0"":""none of these""}",lip,category_organization
67dfb069aac2aea29b2872e6,7796,survey-multi-choice,18,118545,0,5c699c62b1b0080001bfca3f,67ddb44d013654f31f2c3dff,67dfaf8f3881052b948927d0,0,"{""Q0"":""none of these""}",kiwi,category_organization
67dfb069aac2aea29b2872e8,8397,survey-multi-choice,19,126943,0,5c699c62b1b0080001bfca3f,67ddb44d013654f31f2c3dff,67dfaf8f3881052b948927d0,0,"{""Q0"":""none of these""}",washing machine,category_organization
67dfb069aac2aea29b2872ea,5420,survey-multi-choice,21,142238,0,5c699c62b1b0080001bfca3f,67ddb44d013654f31f2c3dff,67dfaf8f3881052b948927d0,0,"{""Q0"":""none of these""}",flower,category_organization
67dfb069aac2aea29b2872ec,9871,survey-multi-choice,20,136816,0,5c699c62b1b0080001bfca3f,67ddb44d013654f31f2c3dff,67dfaf8f3881052b948927d0,0,"{""Q0"":""material""}",snake,category_organization
67dfb069aac2aea29b2872ee,5003,survey-multi-choice,23,151343,0,5c699c62b1b0080001bfca3f,67ddb44d013654f31f2c3dff,67dfaf8f3881052b948927d0,0,"{""Q0"":""none of these""}",face,category_organization
67dfb069aac2aea29b2872f0,4097,survey-multi-choice,22,146337,0,5c699c62b1b0080001bfca3f,67ddb44d013654f31f2c3dff,67dfaf8f3881052b948927d0,0,"{""Q0"":""material""}",mouth,category_organization
67dfb069aac2aea29b2872f2,2655,survey-multi-choice,24,154001,0,5c699c62b1b0080001bfca3f,67ddb44d013654f31f2c3dff,67dfaf8f3881052b948927d0,0,"{""Q0"":""none of these""}",underpants,category_organization
67dfb069aac2aea29b2872f4,3244,survey-multi-choice,25,157246,0,5c699c62b1b0080001bfca3f,67ddb44d013654f31f2c3dff,67dfaf8f3881052b948927d0,0,"{""Q0"":""material""}",rock (object),category_organization
67dfb069aac2aea29b2872f6,5995,survey-multi-choice,27,165494,0,5c699c62b1b0080001bfca3f,67ddb44d013654f31f2c3dff,67dfaf8f3881052b948927d0,0,"{""Q0"":""none of these""}",cherry,category_organization
67dfb069aac2aea29b2872f8,2250,survey-multi-choice,26,159498,0,5c699c62b1b0080001bfca3f,67ddb44d013654f31f2c3dff,67dfaf8f3881052b948927d0,0,"{""Q0"":""none of these""}",lavender,category_organization
67dfb069aac2aea29b2872fa,4043,survey-multi-choice,28,169540,0,5c699c62b1b0080001bfca3f,67ddb44d013654f31f2c3dff,67dfaf8f3881052b948927d0,0,"{""Q0"":""none of these""}",pickle,category_organization
67dfb069aac2aea29b2872fc,3548,survey-multi-choice,29,173091,0,5c699c62b1b0080001bfca3f,67ddb44d013654f31f2c3dff,67dfaf8f3881052b948927d0,0,"{""Q0"":""none of these""}",stick,category_organization
67dfb069aac2aea29b2872fe,2545,survey-multi-choice,30,175638,0,5c699c62b1b0080001bfca3f,67ddb44d013654f31f2c3dff,67dfaf8f3881052b948927d0,0,"{""Q0"":""none of these""}",sweater,category_organization
67dfb06aaac2aea29b287300,4647,survey-multi-choice,31,180289,0,5c699c62b1b0080001bfca3f,67ddb44d013654f31f2c3dff,67dfaf8f3881052b948927d0,0,"{""Q0"":""none of these""}",milk,category_organization
67dfb06aaac2aea29b287302,9025,survey-multi-choice,32,189316,0,5c699c62b1b0080001bfca3f,67ddb44d013654f31f2c3dff,67dfaf8f3881052b948927d0,0,"{""Q0"":""none of these""}",stool,category_organization
67dfb06aaac2aea29b287304,2307,survey-multi-choice,33,191625,0,5c699c62b1b0080001bfca3f,67ddb44d013654f31f2c3dff,67dfaf8f3881052b948927d0,0,"{""Q0"":""none of these""}",motorcycle,category_organization
67dfb06aaac2aea29b287306,2535,survey-multi-choice,34,194162,0,5c699c62b1b0080001bfca3f,67ddb44d013654f31f2c3dff,67dfaf8f3881052b948927d0,0,"{""Q0"":""none of these""}",tights,category_organization
67dfb06aaac2aea29b287308,2610,survey-multi-choice,35,196774,0,5c699c62b1b0080001bfca3f,67ddb44d013654f31f2c3dff,67dfaf8f3881052b948927d0,0,"{""Q0"":""none of these""}",motorcycle,category_organization
67dfb06aaac2aea29b28730a,3000,survey-multi-choice,36,199776,0,5c699c62b1b0080001bfca3f,67ddb44d013654f31f2c3dff,67dfaf8f3881052b948927d0,0,"{""Q0"":""none of these""}",lamp,category_organization
67dfb06aaac2aea29b28730c,2533,html-button-response,37,202311,0,5c699c62b1b0080001bfca3f,67ddb44d013654f31f2c3dff,67dfaf8f3881052b948927d0,0,0,,
67dfb082aac2aea29b28730e,4000,instructions,0,4013,0,628a119d0b74d2b456ce5201,67ddb44d013654f31f2c3dff,67dfaf8c52ec4cbda5020539,0,,,
67dfb082aac2aea29b287310,9225,instructions,1,13239,0,628a119d0b74d2b456ce5201,67ddb44d013654f31f2c3dff,67dfaf8c52ec4cbda5020539,0,,,
67dfb082aac2aea29b287312,6908,html-button-response,3,30397,0,628a119d0b74d2b456ce5201,67ddb44d013654f31f2c3dff,67dfaf8c52ec4cbda5020539,0,0,,
67dfb082aac2aea29b287314,10245,html-button-response,2,23488,0,628a119d0b74d2b456ce5201,67ddb44d013654f31f2c3dff,67dfaf8c52ec4cbda5020539,0,0,,
67dfb082aac2aea29b287316,11563,html-button-response,4,41963,0,628a119d0b74d2b456ce5201,67ddb44d013654f31f2c3dff,67dfaf8c52ec4cbda5020539,0,0,,
67dfb082aac2aea29b287318,2780,html-button-response,5,44744,0,628a119d0b74d2b456ce5201,67ddb44d013654f31f2c3dff,67dfaf8c52ec4cbda5020539,0,0,,
67dfb082aac2aea29b28731a,5935,html-button-response,6,50681,0,628a119d0b74d2b456ce5201,67ddb44d013654f31f2c3dff,67dfaf8c52ec4cbda5020539,0,0,,
67dfb082aac2aea29b28731c,12497,survey-multi-choice,7,63180,0,628a119d0b74d2b456ce5201,67ddb44d013654f31f2c3dff,67dfaf8c52ec4cbda5020539,0,"{""Q0"":""none of these""}",happiness,practice_category
67dfb082aac2aea29b28731e,3145,html-button-response,8,66328,0,628a119d0b74d2b456ce5201,67ddb44d013654f31f2c3dff,67dfaf8c52ec4cbda5020539,0,0,,
67dfb082aac2aea29b287320,7915,survey-multi-choice,9,74244,0,628a119d0b74d2b456ce5201,67ddb44d013654f31f2c3dff,67dfaf8c52ec4cbda5020539,0,"{""Q0"":""material""}",pottery,practice_category
67dfb082aac2aea29b287322,4296,html-button-response,10,78541,0,628a119d0b74d2b456ce5201,67ddb44d013654f31f2c3dff,67dfaf8c52ec4cbda5020539,0,0,,
67dfb082aac2aea29b287324,6702,html-button-response,12,91255,0,628a119d0b74d2b456ce5201,67ddb44d013654f31f2c3dff,67dfaf8c52ec4cbda5020539,0,0,,
67dfb082aac2aea29b287326,6009,survey-multi-choice,11,84551,0,628a119d0b74d2b456ce5201,67ddb44d013654f31f2c3dff,67dfaf8c52ec4cbda5020539,0,"{""Q0"":""color""}",red,practice_category
67dfb082aac2aea29b287328,5846,survey-multi-choice,13,97102,0,628a119d0b74d2b456ce5201,67ddb44d013654f31f2c3dff,67dfaf8c52ec4cbda5020539,0,"{""Q0"":""shape""}",square,practice_category
67dfb082aac2aea29b28732a,1763,html-button-response,14,98866,0,628a119d0b74d2b456ce5201,67ddb44d013654f31f2c3dff,67dfaf8c52ec4cbda5020539,0,0,,
67dfb082aac2aea29b28732c,3384,html-button-response,15,102253,0,628a119d0b74d2b456ce5201,67ddb44d013654f31f2c3dff,67dfaf8c52ec4cbda5020539,0,0,,
67dfb082aac2aea29b28732e,7419,survey-multi-choice,16,109674,0,628a119d0b74d2b456ce5201,67ddb44d013654f31f2c3dff,67dfaf8c52ec4cbda5020539,0,"{""Q0"":""none of these""}",seal (animal),category_organization
67dfb082aac2aea29b287330,13974,survey-multi-choice,17,123650,0,628a119d0b74d2b456ce5201,67ddb44d013654f31f2c3dff,67dfaf8c52ec4cbda5020539,0,"{""Q0"":""shape""}",truck,category_organization
67dfb082aac2aea29b287332,3680,survey-multi-choice,18,127333,0,628a119d0b74d2b456ce5201,67ddb44d013654f31f2c3dff,67dfaf8c52ec4cbda5020539,0,"{""Q0"":""none of these""}",puppy,category_organization
67dfb082aac2aea29b287334,5732,survey-multi-choice,19,133066,0,628a119d0b74d2b456ce5201,67ddb44d013654f31f2c3dff,67dfaf8c52ec4cbda5020539,0,"{""Q0"":""none of these""}",fish (food),category_organization
67dfb082aac2aea29b287336,3470,survey-multi-choice,20,136537,0,628a119d0b74d2b456ce5201,67ddb44d013654f31f2c3dff,67dfaf8c52ec4cbda5020539,0,"{""Q0"":""none of these""}",crow,category_organization
67dfb082aac2aea29b287338,6430,survey-multi-choice,21,142968,0,628a119d0b74d2b456ce5201,67ddb44d013654f31f2c3dff,67dfaf8c52ec4cbda5020539,0,"{""Q0"":""none of these""}",food,category_organization
67dfb082aac2aea29b28733a,4052,survey-multi-choice,22,147021,0,628a119d0b74d2b456ce5201,67ddb44d013654f31f2c3dff,67dfaf8c52ec4cbda5020539,0,"{""Q0"":""none of these""}",spider,category_organization
67dfb082aac2aea29b28733c,5384,survey-multi-choice,23,152406,0,628a119d0b74d2b456ce5201,67ddb44d013654f31f2c3dff,67dfaf8c52ec4cbda5020539,0,"{""Q0"":""none of these""}",closet,category_organization
67dfb082aac2aea29b28733e,3720,survey-multi-choice,24,156129,0,628a119d0b74d2b456ce5201,67ddb44d013654f31f2c3dff,67dfaf8c52ec4cbda5020539,0,"{""Q0"":""none of these""}",lavender,category_organization
67dfb082aac2aea29b287340,11373,survey-multi-choice,25,167504,0,628a119d0b74d2b456ce5201,67ddb44d013654f31f2c3dff,67dfaf8c52ec4cbda5020539,0,"{""Q0"":""shape""}",pot,category_organization
67dfb082aac2aea29b287342,4166,survey-multi-choice,26,171671,0,628a119d0b74d2b456ce5201,67ddb44d013654f31f2c3dff,67dfaf8c52ec4cbda5020539,0,"{""Q0"":""none of these""}",kitchen,category_organization
67dfb082aac2aea29b287344,3756,survey-multi-choice,27,175430,0,628a119d0b74d2b456ce5201,67ddb44d013654f31f2c3dff,67dfaf8c52ec4cbda5020539,0,"{""Q0"":""none of these""}",ladder,category_organization
67dfb082aac2aea29b287346,3454,survey-multi-choice,28,178885,0,628a119d0b74d2b456ce5201,67ddb44d013654f31f2c3dff,67dfaf8c52ec4cbda5020539,0,"{""Q0"":""none of these""}",knife,category_organization
67dfb082aac2aea29b287348,4574,survey-multi-choice,30,186300,0,628a119d0b74d2b456ce5201,67ddb44d013654f31f2c3dff,67dfaf8c52ec4cbda5020539,0,"{""Q0"":""none of these""}",chick,category_organization
67dfb082aac2aea29b28734a,2838,survey-multi-choice,29,181724,0,628a119d0b74d2b456ce5201,67ddb44d013654f31f2c3dff,67dfaf8c52ec4cbda5020539,0,"{""Q0"":""none of these""}",apple,category_organization
67dfb083aac2aea29b28734c,4043,survey-multi-choice,31,190344,0,628a119d0b74d2b456ce5201,67ddb44d013654f31f2c3dff,67dfaf8c52ec4cbda5020539,0,"{""Q0"":""none of these""}",leg,category_organization
67dfb083aac2aea29b28734e,3508,survey-multi-choice,32,193855,0,628a119d0b74d2b456ce5201,67ddb44d013654f31f2c3dff,67dfaf8c52ec4cbda5020539,0,"{""Q0"":""none of these""}",drawer,category_organization
67dfb083aac2aea29b287350,12298,survey-multi-choice,33,206154,0,628a119d0b74d2b456ce5201,67ddb44d013654f31f2c3dff,67dfaf8c52ec4cbda5020539,0,"{""Q0"":""shape""}",beads,category_organization
67dfb083aac2aea29b287352,5956,survey-multi-choice,34,212112,0,628a119d0b74d2b456ce5201,67ddb44d013654f31f2c3dff,67dfaf8c52ec4cbda5020539,0,"{""Q0"":""none of these""}",quesadilla,category_organization
67dfb083aac2aea29b287354,4565,survey-multi-choice,35,216678,0,628a119d0b74d2b456ce5201,67ddb44d013654f31f2c3dff,67dfaf8c52ec4cbda5020539,0,"{""Q0"":""none of these""}",watch (object),category_organization
67dfb083aac2aea29b287356,7800,survey-multi-choice,36,224479,0,628a119d0b74d2b456ce5201,67ddb44d013654f31f2c3dff,67dfaf8c52ec4cbda5020539,0,"{""Q0"":""none of these""}",noodles,category_organization
67dfb083aac2aea29b287358,3706,html-button-response,37,228186,0,628a119d0b74d2b456ce5201,67ddb44d013654f31f2c3dff,67dfaf8c52ec4cbda5020539,0,0,,
67dfb084aac2aea29b28735a,3280,instructions,0,3284,0,561cc05d3d7fe800110f5757,67ddb44d013654f31f2c3dff,67dfafdc32770d64c58920ea,0,,,
67dfb084aac2aea29b28735c,5601,instructions,1,8887,0,561cc05d3d7fe800110f5757,67ddb44d013654f31f2c3dff,67dfafdc32770d64c58920ea,0,,,
67dfb084aac2aea29b28735e,9959,html-button-response,2,18847,0,561cc05d3d7fe800110f5757,67ddb44d013654f31f2c3dff,67dfafdc32770d64c58920ea,0,0,,
67dfb084aac2aea29b287360,4605,html-button-response,3,23454,0,561cc05d3d7fe800110f5757,67ddb44d013654f31f2c3dff,67dfafdc32770d64c58920ea,0,0,,
67dfb084aac2aea29b287362,12764,html-button-response,4,36219,0,561cc05d3d7fe800110f5757,67ddb44d013654f31f2c3dff,67dfafdc32770d64c58920ea,0,0,,
67dfb084aac2aea29b287364,5948,html-button-response,6,44813,0,561cc05d3d7fe800110f5757,67ddb44d013654f31f2c3dff,67dfafdc32770d64c58920ea,0,0,,
67dfb084aac2aea29b287366,2644,html-button-response,5,38864,0,561cc05d3d7fe800110f5757,67ddb44d013654f31f2c3dff,67dfafdc32770d64c58920ea,0,0,,
67dfb084aac2aea29b287368,8585,survey-multi-choice,7,53400,0,561cc05d3d7fe800110f5757,67ddb44d013654f31f2c3dff,67dfafdc32770d64c58920ea,0,"{""Q0"":""shape""}",square,practice_category
67dfb084aac2aea29b28736a,1287,html-button-response,8,54688,0,561cc05d3d7fe800110f5757,67ddb44d013654f31f2c3dff,67dfafdc32770d64c58920ea,0,0,,
67dfb084aac2aea29b28736c,14281,survey-multi-choice,9,68971,0,561cc05d3d7fe800110f5757,67ddb44d013654f31f2c3dff,67dfafdc32770d64c58920ea,0,"{""Q0"":""none of these""}",pottery,practice_category
67dfb084aac2aea29b28736e,3276,html-button-response,10,72248,0,561cc05d3d7fe800110f5757,67ddb44d013654f31f2c3dff,67dfafdc32770d64c58920ea,0,0,,
67dfb084aac2aea29b287370,7362,survey-multi-choice,11,79611,0,561cc05d3d7fe800110f5757,67ddb44d013654f31f2c3dff,67dfafdc32770d64c58920ea,0,"{""Q0"":""color""}",red,practice_category
67dfb084aac2aea29b287372,1010,html-button-response,12,80622,0,561cc05d3d7fe800110f5757,67ddb44d013654f31f2c3dff,67dfafdc32770d64c58920ea,0,0,,
67dfb084aac2aea29b287374,4295,survey-multi-choice,13,84918,0,561cc05d3d7fe800110f5757,67ddb44d013654f31f2c3dff,67dfafdc32770d64c58920ea,0,"{""Q0"":""none of these""}",happiness,practice_category
67dfb084aac2aea29b287376,914,html-button-response,14,85832,0,561cc05d3d7fe800110f5757,67ddb44d013654f31f2c3dff,67dfafdc32770d64c58920ea,0,0,,
67dfb084aac2aea29b287378,1178,html-button-response,15,87010,0,561cc05d3d7fe800110f5757,67ddb44d013654f31f2c3dff,67dfafdc32770d64c58920ea,0,0,,
67dfb084aac2aea29b28737a,8132,survey-multi-choice,16,95144,0,561cc05d3d7fe800110f5757,67ddb44d013654f31f2c3dff,67dfafdc32770d64c58920ea,0,"{""Q0"":""shape""}",remote control,category_organization
67dfb084aac2aea29b28737e,2635,survey-multi-choice,18,100048,0,561cc05d3d7fe800110f5757,67ddb44d013654f31f2c3dff,67dfafdc32770d64c58920ea,0,"{""Q0"":""shape""}",mug,category_organization
67dfb084aac2aea29b28737c,2266,survey-multi-choice,17,97412,0,561cc05d3d7fe800110f5757,67ddb44d013654f31f2c3dff,67dfafdc32770d64c58920ea,0,"{""Q0"":""none of these""}",lavender,category_organization
67dfb084aac2aea29b287380,2866,survey-multi-choice,19,102915,0,561cc05d3d7fe800110f5757,67ddb44d013654f31f2c3dff,67dfafdc32770d64c58920ea,0,"{""Q0"":""material""}",snow,category_organization
67dfb084aac2aea29b287382,6457,survey-multi-choice,20,109374,0,561cc05d3d7fe800110f5757,67ddb44d013654f31f2c3dff,67dfafdc32770d64c58920ea,0,"{""Q0"":""shape""}",battery,category_organization
67dfb084aac2aea29b287384,3469,survey-multi-choice,21,112843,0,561cc05d3d7fe800110f5757,67ddb44d013654f31f2c3dff,67dfafdc32770d64c58920ea,0,"{""Q0"":""shape""}",cookie,category_organization
67dfb084aac2aea29b287386,4631,survey-multi-choice,22,117476,0,561cc05d3d7fe800110f5757,67ddb44d013654f31f2c3dff,67dfafdc32770d64c58920ea,0,"{""Q0"":""shape""}",gorilla,category_organization
67dfb084aac2aea29b287388,2459,survey-multi-choice,23,119936,0,561cc05d3d7fe800110f5757,67ddb44d013654f31f2c3dff,67dfafdc32770d64c58920ea,0,"{""Q0"":""shape""}",tv,category_organization
67dfb084aac2aea29b28738a,2233,survey-multi-choice,24,122170,0,561cc05d3d7fe800110f5757,67ddb44d013654f31f2c3dff,67dfafdc32770d64c58920ea,0,"{""Q0"":""shape""}",box,category_organization
67dfb084aac2aea29b28738e,2203,survey-multi-choice,26,127178,0,561cc05d3d7fe800110f5757,67ddb44d013654f31f2c3dff,67dfafdc32770d64c58920ea,0,"{""Q0"":""shape""}",monkey,category_organization
67dfb084aac2aea29b287390,2962,survey-multi-choice,27,130141,0,561cc05d3d7fe800110f5757,67ddb44d013654f31f2c3dff,67dfafdc32770d64c58920ea,0,"{""Q0"":""shape""}",penny,category_organization
67dfb084aac2aea29b287392,2113,survey-multi-choice,28,132256,0,561cc05d3d7fe800110f5757,67ddb44d013654f31f2c3dff,67dfafdc32770d64c58920ea,0,"{""Q0"":""shape""}",curtain,category_organization
67dfb084aac2aea29b287394,2179,survey-multi-choice,29,134436,0,561cc05d3d7fe800110f5757,67ddb44d013654f31f2c3dff,67dfafdc32770d64c58920ea,0,"{""Q0"":""shape""}",knife,category_organization
67dfb084aac2aea29b287396,2496,survey-multi-choice,30,136933,0,561cc05d3d7fe800110f5757,67ddb44d013654f31f2c3dff,67dfafdc32770d64c58920ea,0,"{""Q0"":""shape""}",leaf,category_organization
67dfb084aac2aea29b28738c,2802,survey-multi-choice,25,124974,0,561cc05d3d7fe800110f5757,67ddb44d013654f31f2c3dff,67dfafdc32770d64c58920ea,0,"{""Q0"":""shape""}",pajamas,category_organization
67dfb085aac2aea29b287398,2451,survey-multi-choice,31,139386,0,561cc05d3d7fe800110f5757,67ddb44d013654f31f2c3dff,67dfafdc32770d64c58920ea,0,"{""Q0"":""material""}",salt,category_organization
67dfb085aac2aea29b28739a,2346,survey-multi-choice,32,141734,0,561cc05d3d7fe800110f5757,67ddb44d013654f31f2c3dff,67dfafdc32770d64c58920ea,0,"{""Q0"":""shape""}",fly (animal),category_organization
67dfb085aac2aea29b28739c,1873,survey-multi-choice,34,145610,0,561cc05d3d7fe800110f5757,67ddb44d013654f31f2c3dff,67dfafdc32770d64c58920ea,0,"{""Q0"":""shape""}",fork,category_organization
67dfb085aac2aea29b28739e,2001,survey-multi-choice,33,143736,0,561cc05d3d7fe800110f5757,67ddb44d013654f31f2c3dff,67dfafdc32770d64c58920ea,0,"{""Q0"":""shape""}",shirt,category_organization
67dfb085aac2aea29b2873a0,5535,survey-multi-choice,35,151145,0,561cc05d3d7fe800110f5757,67ddb44d013654f31f2c3dff,67dfafdc32770d64c58920ea,0,"{""Q0"":""material""}",grass,category_organization
67dfb085aac2aea29b2873a2,2763,survey-multi-choice,36,153910,0,561cc05d3d7fe800110f5757,67ddb44d013654f31f2c3dff,67dfafdc32770d64c58920ea,0,"{""Q0"":""shape""}",traffic light,category_organization
67dfb085aac2aea29b2873a4,2718,html-button-response,37,156629,0,561cc05d3d7fe800110f5757,67ddb44d013654f31f2c3dff,67dfafdc32770d64c58920ea,0,0,,
67dfb089aac2aea29b2873a6,12687,instructions,0,12692,0,67dc8e515e7374bfad603991,67ddb44d013654f31f2c3dff,67dfaef727324290d667c0b5,0,,,
67dfb089aac2aea29b2873a8,12087,instructions,1,24783,0,67dc8e515e7374bfad603991,67ddb44d013654f31f2c3dff,67dfaef727324290d667c0b5,0,,,
67dfb089aac2aea29b2873aa,26188,html-button-response,2,50983,0,67dc8e515e7374bfad603991,67ddb44d013654f31f2c3dff,67dfaef727324290d667c0b5,0,0,,
67dfb08aaac2aea29b2873ac,13652,html-button-response,3,64639,0,67dc8e515e7374bfad603991,67ddb44d013654f31f2c3dff,67dfaef727324290d667c0b5,0,0,,
67dfb08aaac2aea29b2873ae,16417,html-button-response,4,81061,0,67dc8e515e7374bfad603991,67ddb44d013654f31f2c3dff,67dfaef727324290d667c0b5,0,0,,
67dfb08aaac2aea29b2873b0,5537,html-button-response,5,86603,0,67dc8e515e7374bfad603991,67ddb44d013654f31f2c3dff,67dfaef727324290d667c0b5,0,0,,
67dfb08aaac2aea29b2873b2,11975,html-button-response,6,98583,0,67dc8e515e7374bfad603991,67ddb44d013654f31f2c3dff,67dfaef727324290d667c0b5,0,0,,
67dfb08baac2aea29b2873b4,21252,survey-multi-choice,7,119844,0,67dc8e515e7374bfad603991,67ddb44d013654f31f2c3dff,67dfaef727324290d667c0b5,0,"{""Q0"":""color""}",red,practice_category
67dfb08baac2aea29b2873b6,6553,html-button-response,8,126399,0,67dc8e515e7374bfad603991,67ddb44d013654f31f2c3dff,67dfaef727324290d667c0b5,0,0,,
67dfb08baac2aea29b2873b8,10560,survey-multi-choice,9,136962,0,67dc8e515e7374bfad603991,67ddb44d013654f31f2c3dff,67dfaef727324290d667c0b5,0,"{""Q0"":""none of these""}",happiness,practice_category
67dfb08baac2aea29b2873ba,4098,html-button-response,10,141062,0,67dc8e515e7374bfad603991,67ddb44d013654f31f2c3dff,67dfaef727324290d667c0b5,0,0,,
67dfb08baac2aea29b2873bc,9799,survey-multi-choice,11,150864,0,67dc8e515e7374bfad603991,67ddb44d013654f31f2c3dff,67dfaef727324290d667c0b5,0,"{""Q0"":""material""}",pottery,practice_category
67dfb08caac2aea29b2873be,3322,html-button-response,12,154188,0,67dc8e515e7374bfad603991,67ddb44d013654f31f2c3dff,67dfaef727324290d667c0b5,0,0,,
67dfb08caac2aea29b2873c0,7574,survey-multi-choice,13,161764,0,67dc8e515e7374bfad603991,67ddb44d013654f31f2c3dff,67dfaef727324290d667c0b5,0,"{""Q0"":""shape""}",square,practice_category
67dfb08caac2aea29b2873c2,1987,html-button-response,14,163754,0,67dc8e515e7374bfad603991,67ddb44d013654f31f2c3dff,67dfaef727324290d667c0b5,0,0,,
67dfb08caac2aea29b2873c4,9809,survey-multi-choice,16,178985,0,67dc8e515e7374bfad603991,67ddb44d013654f31f2c3dff,67dfaef727324290d667c0b5,0,"{""Q0"":""none of these""}",hedgehog,category_organization
67dfb08caac2aea29b2873c6,5418,html-button-response,15,169174,0,67dc8e515e7374bfad603991,67ddb44d013654f31f2c3dff,67dfaef727324290d667c0b5,0,0,,
67dfb08caac2aea29b2873c8,11116,survey-multi-choice,17,190104,0,67dc8e515e7374bfad603991,67ddb44d013654f31f2c3dff,67dfaef727324290d667c0b5,0,"{""Q0"":""none of these""}",suburb,category_organization
67dfb08caac2aea29b2873ca,6603,survey-multi-choice,18,196709,0,67dc8e515e7374bfad603991,67ddb44d013654f31f2c3dff,67dfaef727324290d667c0b5,0,"{""Q0"":""material""}",porridge,category_organization
67dfb08caac2aea29b2873cc,11689,survey-multi-choice,19,208400,0,67dc8e515e7374bfad603991,67ddb44d013654f31f2c3dff,67dfaef727324290d667c0b5,0,"{""Q0"":""shape""}",boots,category_organization
67dfb08caac2aea29b2873ce,19173,survey-multi-choice,20,227575,0,67dc8e515e7374bfad603991,67ddb44d013654f31f2c3dff,67dfaef727324290d667c0b5,0,"{""Q0"":""shape""}",face,category_organization
67dfb08caac2aea29b2873d0,4966,survey-multi-choice,21,232544,0,67dc8e515e7374bfad603991,67ddb44d013654f31f2c3dff,67dfaef727324290d667c0b5,0,"{""Q0"":""shape""}",penis,category_organization
67dfb08caac2aea29b2873d2,4802,survey-multi-choice,22,237347,0,67dc8e515e7374bfad603991,67ddb44d013654f31f2c3dff,67dfaef727324290d667c0b5,0,"{""Q0"":""color""}",zebra,category_organization
67dfb08caac2aea29b2873d4,7195,survey-multi-choice,23,244544,0,67dc8e515e7374bfad603991,67ddb44d013654f31f2c3dff,67dfaef727324290d667c0b5,0,"{""Q0"":""shape""}",vagina,category_organization
67dfb08caac2aea29b2873d6,5784,survey-multi-choice,24,250330,0,67dc8e515e7374bfad603991,67ddb44d013654f31f2c3dff,67dfaef727324290d667c0b5,0,"{""Q0"":""shape""}",tricycle,category_organization
67dfb08caac2aea29b2873d8,8853,survey-multi-choice,25,259185,0,67dc8e515e7374bfad603991,67ddb44d013654f31f2c3dff,67dfaef727324290d667c0b5,0,"{""Q0"":""shape""}",fish (animal),category_organization
67dfb08caac2aea29b2873da,9071,survey-multi-choice,26,268258,0,67dc8e515e7374bfad603991,67ddb44d013654f31f2c3dff,67dfaef727324290d667c0b5,0,"{""Q0"":""shape""}",orange (food),category_organization
67dfb08caac2aea29b2873dc,5137,survey-multi-choice,27,273397,0,67dc8e515e7374bfad603991,67ddb44d013654f31f2c3dff,67dfaef727324290d667c0b5,0,"{""Q0"":""none of these""}",lavender,category_organization
67dfb08daac2aea29b2873de,8312,survey-multi-choice,28,281711,0,67dc8e515e7374bfad603991,67ddb44d013654f31f2c3dff,67dfaef727324290d667c0b5,0,"{""Q0"":""material""}",cheerios,category_organization
